"rule_id","p21_id","source","source_document","source_url","authority","standard","ig_versions","rule_type","publisher_id","conformance_rule_origin","cited_guidance","message","description","domains","classes","severity","sensitivity","executability","status","notes","runnable"
"ADaM-005-SD","AD0005","CDISC Library API","CDISC Conformance Rules (SDTMIG/ADaMIG)","https://library.cdisc.org/api/mdr/rules","CDISC","ADaM","ADaMIG 1.1","Record Data","ADaM-5-SD","ADaM IG Conformance Rules","ADaM IG v1.1 §3.2","*FL variable has a value other than Y, N, or null (single-dataset check)","A variable with a suffix of FL must have a value of Y, N, or null (single-dataset variant). Uses ONTRTFL as a representative *FL variable within a single dataset.","ALL","ALL","","Record","Partially Executable","Published","","TRUE"
"ADaM-005","AD0005","CDISC Library API","CDISC Conformance Rules (SDTMIG/ADaMIG)","https://library.cdisc.org/api/mdr/rules","CDISC","ADaM","ADaMIG 1.1","Record Data","ADaM-5","ADaM IG Conformance Rules","ADaM IG v1.1 §3.2","*FL variable has a value other than Y, N, or null","A variable with a suffix of FL must have a value of Y, N, or null. This rule uses ONTRTFL as a representative *FL variable. Full coverage requires checking all *FL columns across all ADaM datasets.","ALL","ALL","","Record","Partially Executable","Published","","TRUE"
"ADaM-006-SD","AD0006","CDISC Library API","CDISC Conformance Rules (SDTMIG/ADaMIG)","https://library.cdisc.org/api/mdr/rules","CDISC","ADaM","ADaMIG 1.1","Record Data","ADaM-6-SD","ADaM IG Conformance Rules","ADaM IG v1.1 §3.2","*FN variable has a value other than 0, 1, or null (single-dataset check)","A variable with a suffix of FN must have a value of 0, 1, or null (single-dataset variant). Uses ONTRTFN as a representative *FN variable.","ALL","ALL","","Record","Partially Executable","Published","","TRUE"
"ADaM-006","AD0006","CDISC Library API","CDISC Conformance Rules (SDTMIG/ADaMIG)","https://library.cdisc.org/api/mdr/rules","CDISC","ADaM","ADaMIG 1.1","Record Data","ADaM-6","ADaM IG Conformance Rules","ADaM IG v1.1 §3.2","*FN variable has a value other than 0, 1, or null","A variable with a suffix of FN must have a value of 0, 1, or null. This rule uses ONTRTFN as a representative *FN variable. Full coverage requires checking all *FN columns across all ADaM datasets.","ALL","ALL","","Record","Partially Executable","Published","","TRUE"
"ADaM-007","AD0007","CDISC Library API","CDISC Conformance Rules (SDTMIG/ADaMIG)","https://library.cdisc.org/api/mdr/rules","CDISC","ADaM","ADaMIG 1.1","Record Data","ADaM-7","ADaM IG Conformance Rules","ADaM IG v1.1 §3.2","Numeric flag variable *FN is present but corresponding *FL variable is missing or null","If a numeric flag (*FN) variable is present, its corresponding character flag (*FL) variable must also be present. This rule uses SAFFN/SAFFL as a representative *FN/*FL pair. Full coverage requires checking all paired *FN/*FL columns.","ALL","ALL","","Record","Partially Executable","Published","","TRUE"
"ADaM-010","AD0010","CDISC Library API","CDISC Conformance Rules (SDTMIG/ADaMIG)","https://library.cdisc.org/api/mdr/rules","CDISC","ADaM","ADaMIG 1.1","Record Data","ADaM-10","ADaM IG Conformance Rules","ADaM IG v1.1 §3.2","*FL = Y but corresponding *FN is not 1","When a flag variable (*FL) has value Y, its corresponding numeric flag (*FN) must be 1. This rule uses SAFFL/SAFFN as a representative *FL/*FN pair.","ALL","ALL","","Record","Partially Executable","Published","","TRUE"
"ADaM-011","AD0011","CDISC Library API","CDISC Conformance Rules (SDTMIG/ADaMIG)","https://library.cdisc.org/api/mdr/rules","CDISC","ADaM","ADaMIG 1.1","Record Data","ADaM-11","ADaM IG Conformance Rules","ADaM IG v1.1 §3.2","*FL = N but corresponding *FN is not 0","When a flag variable (*FL) has value N, its corresponding numeric flag (*FN) must be 0. This rule uses SAFFL/SAFFN as a representative *FL/*FN pair.","ALL","ALL","","Record","Partially Executable","Published","","TRUE"
"ADaM-012","AD0012","CDISC Library API","CDISC Conformance Rules (SDTMIG/ADaMIG)","https://library.cdisc.org/api/mdr/rules","CDISC","ADaM","ADaMIG 1.1","Record Data","ADaM-12","ADaM IG Conformance Rules","ADaM IG v1.1 §3.2","*FL is null but corresponding *FN is not null","When a flag variable (*FL) is null, its corresponding numeric flag (*FN) must also be null. Uses ONTRTFL/ONTRTFN as representative pair (non-population flags where null is allowed).","ALL","ALL","","Record","Partially Executable","Published","","TRUE"
"ADaM-013","AD0013","CDISC Library API","CDISC Conformance Rules (SDTMIG/ADaMIG)","https://library.cdisc.org/api/mdr/rules","CDISC","ADaM","ADaMIG 1.1","Record Data","ADaM-13","ADaM IG Conformance Rules","ADaM IG v1.1 §3.1","Variable name violates ADaM naming convention (max 8 chars, start with letter, A-Z/0-9/_ only)","ADaM variable names must be no more than 8 characters in length, must start with a letter A-Z or a-z, and may only contain letters, numbers, and underscores. Uses STUDYID as a representative; full enforcement requires checking all variable names.","ALL","ALL","","Record","Partially Executable","Published","","TRUE"
"ADaM-014","AD0014","CDISC Library API","CDISC Conformance Rules (SDTMIG/ADaMIG)","https://library.cdisc.org/api/mdr/rules","CDISC","ADaM","ADaMIG 1.1","Record Data","ADaM-14","ADaM IG Conformance Rules","ADaM IG v1.1 §3.1","Variable name does not start with an English letter (A-Z, a-z)","All ADaM variable names must start with an English letter (A-Z or a-z). This is a structural metadata rule; the check uses STUDYID as a representative to confirm the dataset is well-formed. Full enforcement requires checking all variable names in dataset metadata.","ALL","ALL","","Record","Partially Executable","Published","","TRUE"
"ADaM-015","AD0015","CDISC Library API","CDISC Conformance Rules (SDTMIG/ADaMIG)","https://library.cdisc.org/api/mdr/rules","CDISC","ADaM","ADaMIG 1.1","Record Data","ADaM-15","ADaM IG Conformance Rules","ADaM IG v1.1 §3.1","Variable name contains characters other than letters, digits, or underscore","All ADaM variable names may only contain English letters (A-Z, a-z), underscores (_), or numerals (0-9). No special characters or spaces are allowed. This is a structural metadata rule; STUDYID is used as a representative variable.","ALL","ALL","","Record","Partially Executable","Published","","TRUE"
"ADaM-017-SD","AD0017","CDISC Library API","CDISC Conformance Rules (SDTMIG/ADaMIG)","https://library.cdisc.org/api/mdr/rules","CDISC","ADaM","ADaMIG 1.1","Record Data","ADaM-17-SD","ADaM IG Conformance Rules","ADaM IG v1.1 §3.1","Character variable value exceeds maximum length of 200 characters (single-dataset check)","All ADaM character variable values must be no more than 200 characters in length (single-dataset variant). Uses PARAM as a representative character variable.","ALL","ALL","","Record","Partially Executable","Published","","TRUE"
"ADaM-017","AD0017","CDISC Library API","CDISC Conformance Rules (SDTMIG/ADaMIG)","https://library.cdisc.org/api/mdr/rules","CDISC","ADaM","ADaMIG 1.1","Record Data","ADaM-17","ADaM IG Conformance Rules","ADaM IG v1.1 §3.1","Character variable value exceeds maximum length of 200 characters","All ADaM character variable values must be no more than 200 characters in length. Uses PARAM as a representative character variable. Full coverage requires checking all character variables across all ADaM datasets.","ALL","ALL","","Record","Partially Executable","Published","","TRUE"
"ADaM-019","AD0019","CDISC Library API","CDISC Conformance Rules (SDTMIG/ADaMIG)","https://library.cdisc.org/api/mdr/rules","CDISC","ADaM","ADaMIG 1.1","Record Data","ADaM-19","ADaM IG Conformance Rules","ADaM IG v1.1 §3.2","COMPLFL has a value other than Y or N","COMPLFL may only have a value of Y or N. Null is not allowed for ADSL population flag variables.","ADSL","ALL","","Record","Fully Executable","Published","","TRUE"
"ADaM-020","AD0020","CDISC Library API","CDISC Conformance Rules (SDTMIG/ADaMIG)","https://library.cdisc.org/api/mdr/rules","CDISC","ADaM","ADaMIG 1.1","Record Data","ADaM-20","ADaM IG Conformance Rules","ADaM IG v1.1 §3.2","FASFL has a value other than Y or N","FASFL may only have a value of Y or N. Null is not allowed for ADSL population flag variables.","ADSL","ALL","","Record","Fully Executable","Published","","TRUE"
"ADaM-021","AD0021","CDISC Library API","CDISC Conformance Rules (SDTMIG/ADaMIG)","https://library.cdisc.org/api/mdr/rules","CDISC","ADaM","ADaMIG 1.1","Record Data","ADaM-21","ADaM IG Conformance Rules","ADaM IG v1.1 §3.2","ITTFL has a value other than Y or N","ITTFL may only have a value of Y or N. Null is not allowed for ADSL population flag variables.","ADSL","ALL","","Record","Fully Executable","Published","","TRUE"
"ADaM-022","AD0022","CDISC Library API","CDISC Conformance Rules (SDTMIG/ADaMIG)","https://library.cdisc.org/api/mdr/rules","CDISC","ADaM","ADaMIG 1.1","Record Data","ADaM-22","ADaM IG Conformance Rules","ADaM IG v1.1 §3.2","PPROTFL has a value other than Y or N","PPROTFL may only have a value of Y or N. Null is not allowed for ADSL population flag variables.","ADSL","ALL","","Record","Fully Executable","Published","","TRUE"
"ADaM-023","AD0023","CDISC Library API","CDISC Conformance Rules (SDTMIG/ADaMIG)","https://library.cdisc.org/api/mdr/rules","CDISC","ADaM","ADaMIG 1.1","Record Data","ADaM-23","ADaM IG Conformance Rules","ADaM IG v1.1 §3.2","SAFFL has a value other than Y or N","SAFFL may only have a value of Y or N. Null is not allowed for ADSL population flag variables.","ADSL","ALL","","Record","Fully Executable","Published","","TRUE"
"ADaM-024","AD0024","CDISC Library API","CDISC Conformance Rules (SDTMIG/ADaMIG)","https://library.cdisc.org/api/mdr/rules","CDISC","ADaM","ADaMIG 1.1","Record Data","ADaM-24","ADaM IG Conformance Rules","ADaM IG v1.1 §3.2","RANDFL has a value other than Y or N","RANDFL may only have a value of Y or N. Null is not allowed for ADSL population flag variables.","ADSL","ALL","","Record","Fully Executable","Published","","TRUE"
"ADaM-025","AD0025","CDISC Library API","CDISC Conformance Rules (SDTMIG/ADaMIG)","https://library.cdisc.org/api/mdr/rules","CDISC","ADaM","ADaMIG 1.1","Record Data","ADaM-25","ADaM IG Conformance Rules","ADaM IG v1.1 §3.2","ENRLFL has a value other than Y or N","ENRLFL may only have a value of Y or N. Null is not allowed for ADSL population flag variables.","ADSL","ALL","","Record","Fully Executable","Published","","TRUE"
"ADaM-026","AD0026","CDISC Library API","CDISC Conformance Rules (SDTMIG/ADaMIG)","https://library.cdisc.org/api/mdr/rules","CDISC","ADaM","ADaMIG 1.1","Record Data","ADaM-26","ADaM IG Conformance Rules","ADaM IG v1.1 §3.2","COMPLFN has a value other than 1 or 0","COMPLFN may only have a value of 1 or 0. Null is not allowed for ADSL numeric population flag variables.","ADSL","ALL","","Record","Fully Executable","Published","","TRUE"
"ADaM-027","AD0027","CDISC Library API","CDISC Conformance Rules (SDTMIG/ADaMIG)","https://library.cdisc.org/api/mdr/rules","CDISC","ADaM","ADaMIG 1.1","Record Data","ADaM-27","ADaM IG Conformance Rules","ADaM IG v1.1 §3.2","FASFN has a value other than 1 or 0","FASFN may only have a value of 1 or 0. Null is not allowed for ADSL numeric population flag variables.","ADSL","ALL","","Record","Fully Executable","Published","","TRUE"
"ADaM-028","AD0028","CDISC Library API","CDISC Conformance Rules (SDTMIG/ADaMIG)","https://library.cdisc.org/api/mdr/rules","CDISC","ADaM","ADaMIG 1.1","Record Data","ADaM-28","ADaM IG Conformance Rules","ADaM IG v1.1 §3.2","ITTFN has a value other than 1 or 0","ITTFN may only have a value of 1 or 0. Null is not allowed for ADSL numeric population flag variables.","ADSL","ALL","","Record","Fully Executable","Published","","TRUE"
"ADaM-029","AD0029","CDISC Library API","CDISC Conformance Rules (SDTMIG/ADaMIG)","https://library.cdisc.org/api/mdr/rules","CDISC","ADaM","ADaMIG 1.1","Record Data","ADaM-29","ADaM IG Conformance Rules","ADaM IG v1.1 §3.2","PPROTFN has a value other than 1 or 0","PPROTFN may only have a value of 1 or 0. Null is not allowed for ADSL numeric population flag variables.","ADSL","ALL","","Record","Fully Executable","Published","","TRUE"
"ADaM-030","AD0030","CDISC Library API","CDISC Conformance Rules (SDTMIG/ADaMIG)","https://library.cdisc.org/api/mdr/rules","CDISC","ADaM","ADaMIG 1.1","Record Data","ADaM-30","ADaM IG Conformance Rules","ADaM IG v1.1 §3.2","SAFFN has a value other than 1 or 0","SAFFN may only have a value of 1 or 0. Null is not allowed for ADSL numeric population flag variables.","ADSL","ALL","","Record","Fully Executable","Published","","TRUE"
"ADaM-031","AD0031","CDISC Library API","CDISC Conformance Rules (SDTMIG/ADaMIG)","https://library.cdisc.org/api/mdr/rules","CDISC","ADaM","ADaMIG 1.1","Record Data","ADaM-31","ADaM IG Conformance Rules","ADaM IG v1.1 §3.2","RANDFN has a value other than 1 or 0","RANDFN may only have a value of 1 or 0. Null is not allowed for ADSL numeric population flag variables.","ADSL","ALL","","Record","Fully Executable","Published","","TRUE"
"ADaM-032","AD0032","CDISC Library API","CDISC Conformance Rules (SDTMIG/ADaMIG)","https://library.cdisc.org/api/mdr/rules","CDISC","ADaM","ADaMIG 1.1","Record Data","ADaM-32","ADaM IG Conformance Rules","ADaM IG v1.1 §3.2","ENRLFN has a value other than 1 or 0","ENRLFN may only have a value of 1 or 0. Null is not allowed for ADSL numeric population flag variables.","ADSL","ALL","","Record","Fully Executable","Published","","TRUE"
"ADaM-033","AD0033","CDISC Library API","CDISC Conformance Rules (SDTMIG/ADaMIG)","https://library.cdisc.org/api/mdr/rules","CDISC","ADaM","ADaMIG 1.1","Record Data","ADaM-33","ADaM IG Conformance Rules","ADaM IG v1.1 §3.3.5","*RFL variable (e.g. ABLFL) has a value other than Y or null","A variable with a suffix of RFL (record-level flag) may only have a value of Y or null. Uses ABLFL (Analysis Baseline Flag) as a representative *RFL variable in BDS.","ALL","BDS","","Record","Partially Executable","Published","","TRUE"
"ADaM-034","AD0034","CDISC Library API","CDISC Conformance Rules (SDTMIG/ADaMIG)","https://library.cdisc.org/api/mdr/rules","CDISC","ADaM","ADaMIG 1.1","Record Data","ADaM-34","ADaM IG Conformance Rules","ADaM IG v1.1 §3.3.5","*PFL variable has a value other than Y or null","A variable with a suffix of PFL (parameter-level flag) may only have a value of Y or null. Uses ANL01FL (Analysis 01 Flag) as a representative *FL parameter-level flag in BDS datasets.","ALL","BDS","","Record","Partially Executable","Published","","TRUE"
"ADaM-035","AD0035","CDISC Library API","CDISC Conformance Rules (SDTMIG/ADaMIG)","https://library.cdisc.org/api/mdr/rules","CDISC","ADaM","ADaMIG 1.1","Record Data","ADaM-35","ADaM IG Conformance Rules","ADaM IG v1.1 §3.3.5","*RFN variable (e.g. ABLFN) has a value other than 1 or null","A variable with a suffix of RFN (record-level flag numeric) may only have a value of 1 or null. Uses ABLFN (Analysis Baseline Flag Numeric) as a representative *RFN variable in BDS datasets.","ALL","BDS","","Record","Partially Executable","Published","","TRUE"
"ADaM-036","AD0036","CDISC Library API","CDISC Conformance Rules (SDTMIG/ADaMIG)","https://library.cdisc.org/api/mdr/rules","CDISC","ADaM","ADaMIG 1.1","Record Data","ADaM-36","ADaM IG Conformance Rules","ADaM IG v1.1 §3.3.5","*PFN variable has a value other than 1 or null","A variable with a suffix of PFN (parameter-level flag numeric) may only have a value of 1 or null. Uses ANL01FN (Analysis 01 Flag Numeric) as a representative *PFN variable in BDS datasets.","ALL","BDS","","Record","Partially Executable","Published","","TRUE"
"ADaM-039-SD","AD0039","CDISC Library API","CDISC Conformance Rules (SDTMIG/ADaMIG)","https://library.cdisc.org/api/mdr/rules","CDISC","ADaM","ADaMIG 1.1","Record Data","ADaM-39-SD","ADaM IG Conformance Rules","ADaM IG v1.1 §4.4","Date imputation flag (*DTF) has a value outside controlled terminology (Y/M/D)","Date imputation flag variables (*DTF) must have a value of Y (year, month, and day imputed), M (month and day imputed), D (day imputed), or null. Uses ADTF (Analysis Date Imputation Flag) as representative. Single-dataset variant.","ALL","ALL","","Record","Partially Executable","Published","","TRUE"
"ADaM-041A","","CDISC Library API","CDISC Conformance Rules (SDTMIG/ADaMIG)","https://library.cdisc.org/api/mdr/rules","CDISC","ADaM","ADaMIG 1.1","Record Data","ADaM-041A","ADaM IG Conformance Rules","ADaM IG v1.1 §3.2","*DT variable has missing or invalid date format","*DT variables must have non-missing SAS Date Format. The date value must be formatted as a valid ISO 8601 date (YYYY-MM-DD).","ALL","ALL","","Record","Partially Executable","Published","","TRUE"
"ADaM-042","AD0042","CDISC Library API","CDISC Conformance Rules (SDTMIG/ADaMIG)","https://library.cdisc.org/api/mdr/rules","CDISC","ADaM","ADaMIG 1.1","Record Data","ADaM-42","ADaM IG Conformance Rules","ADaM IG v1.1 §4.4","*TM variable has an invalid time format value","Variables with a *TM suffix must use a valid SAS time format. Values should conform to ISO 8601 time format HH:MM or HH:MM:SS. Uses AESTM as representative *TM variable.","ALL","ALL","","Record","Partially Executable","Published","","TRUE"
"ADaM-042A","","CDISC Library API","CDISC Conformance Rules (SDTMIG/ADaMIG)","https://library.cdisc.org/api/mdr/rules","CDISC","ADaM","ADaMIG 1.1","Record Data","ADaM-42A","ADaM IG Conformance Rules","ADaM IG v1.1 §4.4","*TM variable is missing (null) when time information should be present","*TM suffix variables must have a non-missing value when the corresponding *DTC is populated with a time portion. Uses AESTM as a representative *TM variable.","ALL","ALL","","Record","Partially Executable","Published","","TRUE"
"ADaM-043","AD0043","CDISC Library API","CDISC Conformance Rules (SDTMIG/ADaMIG)","https://library.cdisc.org/api/mdr/rules","CDISC","ADaM","ADaMIG 1.1","Record Data","ADaM-43","ADaM IG Conformance Rules","ADaM IG v1.1 §4.4","*DT variable contains an invalid or non-ISO 8601 date value","Variables with *DT suffix must contain valid complete ISO 8601 dates (YYYY-MM-DD). Uses ADT (Analysis Date) as representative. Partial dates and non-ISO formats are not permitted.","ALL","ALL","","Record","Partially Executable","Published","","TRUE"
"ADaM-043A","","CDISC Library API","CDISC Conformance Rules (SDTMIG/ADaMIG)","https://library.cdisc.org/api/mdr/rules","CDISC","ADaM","ADaMIG 1.1","Record Data","ADaM-43A","ADaM IG Conformance Rules","ADaM IG v1.1 §4.4","*DTM variable contains an invalid or non-ISO 8601 datetime value","Variables with *DTM suffix must contain valid ISO 8601 datetime values (YYYY-MM-DDTHH:MM:SS). Uses ADTM (Analysis Datetime) as representative.","ALL","ALL","","Record","Partially Executable","Published","","TRUE"
"ADaM-044","AD0044","CDISC Library API","CDISC Conformance Rules (SDTMIG/ADaMIG)","https://library.cdisc.org/api/mdr/rules","CDISC","ADaM","ADaMIG 1.1","Record Data","ADaM-044","ADaM IG Conformance Rules","ADaM IG v1.1 §3.2","*TM and its corresponding *DTM variable have different time values","When both time and datetime variables are collected on the same record, the time portion of the datetime variable must equal the time variable. For example, ASTTM must match the time portion of ASTDTM.","ALL","BASIC DATA STRUCTURE, OCCURRENCE DATA STRUCTURE","","Record","Partially Executable","Published","","TRUE"
"ADaM-045","AD0045","CDISC Library API","CDISC Conformance Rules (SDTMIG/ADaMIG)","https://library.cdisc.org/api/mdr/rules","CDISC","ADaM","ADaMIG 1.1","Record Data","ADaM-045","ADaM IG Conformance Rules","ADaM IG v1.1 §3.2","*DT and its corresponding *DTM variable have different date values","When both date and datetime variables are collected on the same record, the date portion of the datetime variable must equal the date variable. For example, ASTDT must match the date portion of ASTDTM.","ALL","BASIC DATA STRUCTURE, OCCURRENCE DATA STRUCTURE","","Record","Partially Executable","Published","","TRUE"
"ADaM-046-SD","AD0046","CDISC Library API","CDISC Conformance Rules (SDTMIG/ADaMIG)","https://library.cdisc.org/api/mdr/rules","CDISC","ADaM","ADaMIG 1.1","Record Data","ADaM-046-SD","ADaM IG Conformance Rules","ADaM IG v1.1 §3.2","*DY = 0","A variable with a suffix of DY (day) must not equal zero. Variables whose suffix is DY represent study day values, which by convention skip zero (i.e., the day before Day 1 is Day -1, not Day 0).","ALL","BASIC DATA STRUCTURE, OCCURRENCE DATA STRUCTURE","","Record","Partially Executable","Published","","TRUE"
"ADaM-047","AD0047","CDISC Library API","CDISC Conformance Rules (SDTMIG/ADaMIG)","https://library.cdisc.org/api/mdr/rules","CDISC","ADaM","ADaMIG 1.1","Dataset Data","ADaM-47","ADaM IG Conformance Rules","ADaM IG v1.1 §3.1","Required variable is not present","All variables described as Required in the ADaM IG must be included in the dataset (ADSL, BDS, OCCDS, ADAE). This rule covers every core structural variable per the ADaM IG required-variable table.","ALL","ADSL, BDS, OCCDS","","Dataset","Reference","Published","","FALSE"
"ADaM-048","AD0048","CDISC Library API","CDISC Conformance Rules (SDTMIG/ADaMIG)","https://library.cdisc.org/api/mdr/rules","CDISC","ADaM","ADaMIG 1.1","Record Data","ADaM-48","ADaM IG Conformance Rules","ADaM IG v1.1 §3.2","ADSL has no subject-level population flag variable (*FL) populated","ADSL must include at least one subject-level population flag variable (ending in FL). This check fires when all of SAFFL, ITTFL, COMPLFL, and ENRLFL are null, suggesting no population flags are present. Full check requires verifying at least one *FL column exists in the dataset structure.","ADSL","ALL","","Record","Partially Executable","Published","","TRUE"
"ADaM-053","AD0053","CDISC Library API","CDISC Conformance Rules (SDTMIG/ADaMIG)","https://library.cdisc.org/api/mdr/rules","CDISC","ADaM","ADaMIG 1.1","Record Data","ADaM-053","ADaM IG Conformance Rules","ADaM IG v1.1 §3.1","Non-unique STUDYID + USUBJID combination","The combination of Study Identifier (STUDYID) and Unique Subject Identifier (USUBJID) must be unique across all ADaM datasets within a study.","ALL","ALL","","Record","Partially Executable","Published","","TRUE"
"ADaM-058","AD0058","CDISC Library API","CDISC Conformance Rules (SDTMIG/ADaMIG)","https://library.cdisc.org/api/mdr/rules","CDISC","ADaM","ADaMIG 1.1","Record Data","ADaM-58","ADaM IG Conformance Rules","ADaM IG v1.1 §4.4","*DT variable does not appear to be a valid numeric SAS date (should be stored as numeric)","*DT analysis date variables must be stored as numeric SAS date values. This rule checks that ADT (Analysis Date) values conform to expected date format, as a proxy for verifying numeric storage. Full enforcement requires checking SAS variable type metadata.","ALL","ALL","","Record","Partially Executable","Published","","TRUE"
"ADaM-059","AD0059","CDISC Library API","CDISC Conformance Rules (SDTMIG/ADaMIG)","https://library.cdisc.org/api/mdr/rules","CDISC","ADaM","ADaMIG 1.1","Record Data","ADaM-59","ADaM IG Conformance Rules","ADaM IG v1.1 §4.4","*TM variable does not appear to be a valid numeric SAS time (should be stored as numeric)","*TM analysis time variables must be stored as numeric SAS time values. This rule checks that AESTM (AE Start Time) values conform to HH:MM:SS format as proxy for numeric storage. Full enforcement requires checking SAS variable type metadata.","ALL","ALL","","Record","Partially Executable","Published","","TRUE"
"ADaM-060","AD0060","CDISC Library API","CDISC Conformance Rules (SDTMIG/ADaMIG)","https://library.cdisc.org/api/mdr/rules","CDISC","ADaM","ADaMIG 1.1","Record Data","ADaM-60","ADaM IG Conformance Rules","ADaM IG v1.1 §4.4","*DTM variable does not appear to be a valid numeric SAS datetime","*DTM analysis datetime variables must be stored as numeric SAS datetime values. Checks ADTM (Analysis Datetime) format as proxy. Full enforcement requires checking SAS variable type metadata.","ALL","ALL","","Record","Partially Executable","Published","","TRUE"
"ADaM-061","AD0061","CDISC Library API","CDISC Conformance Rules (SDTMIG/ADaMIG)","https://library.cdisc.org/api/mdr/rules","CDISC","ADaM","ADaMIG 1.1","Record Data","ADaM-61","ADaM IG Conformance Rules","ADaM IG v1.1 §3.2","ADSL has no treatment variable (TRT01P or TRT01A) suggesting EX data is not linked","If exposure data (EX domain) exists, at least one treatment variable must be present in ADSL (TRT01P or TRT01A). Uses TRT01P/TRT01A as representative treatment variables.","ADSL","ALL","","Record","Partially Executable","Published","","TRUE"
"ADaM-061A","","CDISC Library API","CDISC Conformance Rules (SDTMIG/ADaMIG)","https://library.cdisc.org/api/mdr/rules","CDISC","ADaM","ADaMIG 1.1","Record Data","ADaM-61A","ADaM IG Conformance Rules","ADaM IG v1.1 §3.2","No treatment variable (TRTP or TRTA) present in dataset despite exposure data","Treatment variables (TRTP or TRTA) should be present if exposure data exists. Uses TRTP/TRTA as representative treatment variables for non-ADSL domains.","ALL","ALL","","Record","Partially Executable","Published","","TRUE"
"ADaM-064","AD0064","CDISC Library API","CDISC Conformance Rules (SDTMIG/ADaMIG)","https://library.cdisc.org/api/mdr/rules","CDISC","ADaM","ADaMIG 1.1","Record Data","ADaM-64","ADaM IG Conformance Rules","ADaM IG v1.1 §3.2","TRT01AN is populated but corresponding TRT01A is missing","When TRT01AN (Actual Treatment for Period 01 Numeric) is present, TRT01A (Actual Treatment for Period 01) must also be present.","ADSL","ALL","","Record","Partially Executable","Published","","TRUE"
"ADaM-066","AD0066","CDISC Library API","CDISC Conformance Rules (SDTMIG/ADaMIG)","https://library.cdisc.org/api/mdr/rules","CDISC","ADaM","ADaMIG 1.1","Record Data","ADaM-66","ADaM IG Conformance Rules","ADaM IG v1.1 §3.2","TRxxPGyN (numeric pooled treatment) is populated but TRxxPGy (character) is missing","When TRxxPGyN (Planned Pooled Treatment Numeric) is present, TRxxPGy (Planned Pooled Treatment) must also be present.","ADSL","ALL","","Record","Partially Executable","Published","","TRUE"
"ADaM-070","AD0070","CDISC Library API","CDISC Conformance Rules (SDTMIG/ADaMIG)","https://library.cdisc.org/api/mdr/rules","CDISC","ADaM","ADaMIG 1.1","Record Data","ADaM-70","ADaM IG Conformance Rules","ADaM IG v1.1 §3.2","TRxxAGyN (numeric actual pooled treatment) is populated but TRxxAGy (character) is missing","When TRxxAGyN (Actual Pooled Treatment Numeric) is present, TRxxAGy (Actual Pooled Treatment) must also be present.","ADSL","ALL","","Record","Partially Executable","Published","","TRUE"
"ADaM-075","AD0075","CDISC Library API","CDISC Conformance Rules (SDTMIG/ADaMIG)","https://library.cdisc.org/api/mdr/rules","CDISC","ADaM","ADaMIG 1.1","Record Data","ADaM-75","ADaM IG Conformance Rules","ADaM IG v1.1 §3.2","TRT01PN is populated but corresponding TRT01P is missing","When TRT01PN (Planned Treatment for Period 01 Numeric) is present, TRT01P (Planned Treatment for Period 01) must also be present.","ADSL","ALL","","Record","Partially Executable","Published","","TRUE"
"ADaM-080","AD0080","CDISC Library API","CDISC Conformance Rules (SDTMIG/ADaMIG)","https://library.cdisc.org/api/mdr/rules","CDISC","ADaM","ADaMIG 1.1","Record Data","ADaM-80","ADaM IG Conformance Rules","ADaM IG v1.1 §3.2","TRT01A is populated but corresponding planned treatment TRT01P is missing","When TRT01A (Actual Treatment for Period 01) is present, TRT01P (Planned Treatment for Period 01) must also be present.","ADSL","ALL","","Record","Partially Executable","Published","","TRUE"
"ADaM-083","AD0083","CDISC Library API","CDISC Conformance Rules (SDTMIG/ADaMIG)","https://library.cdisc.org/api/mdr/rules","CDISC","ADaM","ADaMIG 1.1","Record Data","ADaM-83","ADaM IG Conformance Rules","ADaM IG v1.1 §3.2","TRTSDT (Date of First Exposure to Treatment) is null when treatment data exists","TRTSDT (Date of First Exposure to Treatment) must be populated in ADSL when the subject received treatment. A null TRTSDT may indicate missing treatment date derivation.","ADSL","ALL","","Record","Partially Executable","Published","","TRUE"
"ADaM-084","AD0084","CDISC Library API","CDISC Conformance Rules (SDTMIG/ADaMIG)","https://library.cdisc.org/api/mdr/rules","CDISC","ADaM","ADaMIG 1.1","Record Data","ADaM-84","ADaM IG Conformance Rules","ADaM IG v1.1 §3.2","TRTEDT is before TRTSDT (last exposure date is earlier than first exposure date)","TRTEDT (Date of Last Exposure to Treatment) must be on or after TRTSDT (Date of First Exposure to Treatment).","ADSL","ALL","","Record","Fully Executable","Published","","TRUE"
"ADaM-090","AD0090","CDISC Library API","CDISC Conformance Rules (SDTMIG/ADaMIG)","https://library.cdisc.org/api/mdr/rules","CDISC","ADaM","ADaMIG 1.1","Record Data","ADaM-90","ADaM IG Conformance Rules","ADaM IG v1.1 §3.3","No treatment variable (TRTP or TRTA) is populated in BDS dataset","BDS datasets must contain at least one treatment variable (TRTP or TRTA). If both are null, the dataset may be missing required treatment information.","ALL","BDS","","Record","Partially Executable","Published","","TRUE"
"ADaM-091-SD","AD0091","CDISC Library API","CDISC Conformance Rules (SDTMIG/ADaMIG)","https://library.cdisc.org/api/mdr/rules","CDISC","ADaM","ADaMIG 1.1","Record Data","ADaM-91-SD","ADaM IG Conformance Rules","ADaM IG v1.1 §3.3","TRTPN is populated but TRTP is missing (single-dataset check)","Single-dataset variant of ADaM-091. When TRTPN is present, TRTP must also be present within the same dataset.","ALL","BDS","","Record","Partially Executable","Published","","TRUE"
"ADaM-091","AD0091","CDISC Library API","CDISC Conformance Rules (SDTMIG/ADaMIG)","https://library.cdisc.org/api/mdr/rules","CDISC","ADaM","ADaMIG 1.1","Record Data","ADaM-91","ADaM IG Conformance Rules","ADaM IG v1.1 §3.3","TRTPN is populated but TRTP is missing","When TRTPN (Planned Treatment Numeric) is present, TRTP (Planned Treatment) must also be present in BDS datasets.","ALL","BDS","","Record","Partially Executable","Published","","TRUE"
"ADaM-092-SD","AD0092","CDISC Library API","CDISC Conformance Rules (SDTMIG/ADaMIG)","https://library.cdisc.org/api/mdr/rules","CDISC","ADaM","ADaMIG 1.1","Record Data","ADaM-092-SD","ADaM IG Conformance Rules","ADaM IG v1.1 §4.1","Inconsistent value for TRTPN across TRTP values","Within a study, all TRTPN values must be the same for each unique value of TRTP when the primary variable TRTP is populated.","ALL","BASIC DATA STRUCTURE, OCCURRENCE DATA STRUCTURE","","Record","Partially Executable","Published","","TRUE"
"ADaM-093-SD","AD0093","CDISC Library API","CDISC Conformance Rules (SDTMIG/ADaMIG)","https://library.cdisc.org/api/mdr/rules","CDISC","ADaM","ADaMIG 1.1","Record Data","ADaM-093-SD","ADaM IG Conformance Rules","ADaM IG v1.1 §4.1","Inconsistent value for TRTP across TRTPN values","Within a study, all TRTP values must be the same for each unique value of TRTPN when the numeric variable TRTPN is populated.","ALL","BASIC DATA STRUCTURE, OCCURRENCE DATA STRUCTURE","","Record","Partially Executable","Published","","TRUE"
"ADaM-095-SD","AD0095","CDISC Library API","CDISC Conformance Rules (SDTMIG/ADaMIG)","https://library.cdisc.org/api/mdr/rules","CDISC","ADaM","ADaMIG 1.1","Record Data","ADaM-095-SD","ADaM IG Conformance Rules","ADaM IG v1.1 §4.1","Inconsistent value for TRTAN across TRTA values","Within a study, all TRTAN values must be the same for each unique value of TRTA when the primary variable TRTA is populated.","ALL","BASIC DATA STRUCTURE, OCCURRENCE DATA STRUCTURE","","Record","Partially Executable","Published","","TRUE"
"ADaM-096-SD","AD0096","CDISC Library API","CDISC Conformance Rules (SDTMIG/ADaMIG)","https://library.cdisc.org/api/mdr/rules","CDISC","ADaM","ADaMIG 1.1","Record Data","ADaM-096-SD","ADaM IG Conformance Rules","ADaM IG v1.1 §4.1","Inconsistent value for TRTA across TRTAN values","Within a study, all TRTA values must be the same for each unique value of TRTAN when the numeric variable TRTAN is populated.","ALL","BASIC DATA STRUCTURE, OCCURRENCE DATA STRUCTURE","","Record","Partially Executable","Published","","TRUE"
"ADaM-097","AD0097","CDISC Library API","CDISC Conformance Rules (SDTMIG/ADaMIG)","https://library.cdisc.org/api/mdr/rules","CDISC","ADaM","ADaMIG 1.1","Record Data","ADaM-97","ADaM IG Conformance Rules","ADaM IG v1.1 §3.3","TRTPGyN (numeric pooled planned treatment) is populated but TRTPGy (character) is missing","When TRTPG1N (Planned Pooled Treatment 1 Numeric) is present, TRTPG1 (Planned Pooled Treatment 1) must also be present.","ALL","BDS","","Record","Partially Executable","Published","","TRUE"
"ADaM-099-SD","AD0099","CDISC Library API","CDISC Conformance Rules (SDTMIG/ADaMIG)","https://library.cdisc.org/api/mdr/rules","CDISC","ADaM","ADaMIG 1.1","Record Data","ADaM-099-SD","ADaM IG Conformance Rules","ADaM IG v1.1 §3.2","*STDY is greater than *ENDY","Any variable ending in STDY (Start day) must have a value less than or equal to its corresponding ENDY (End day) variable value. ASTDY must be ≤ AENDY.","ALL","BASIC DATA STRUCTURE, OCCURRENCE DATA STRUCTURE","","Record","Partially Executable","Published","","TRUE"
"ADaM-1011","AD1011","CDISC Library API","CDISC Conformance Rules (SDTMIG/ADaMIG)","https://library.cdisc.org/api/mdr/rules","CDISC","ADaM","ADaMIG 1.1","Record Data","ADaM-1011","ADaM IG Conformance Rules","ADaM IG v1.1 §3.2","TRT01PN is populated but primary variable TRT01P is missing","When a numeric secondary variable is populated in ADSL, its corresponding primary character variable must also be populated. Uses TRT01PN/TRT01P as representative. Exceptions apply to TRTPN, TRT01PN, PARAMN, AVALC, BASEC, *LOC, *HIC.","ADSL","ALL","","Record","Partially Executable","Published","","TRUE"
"ADaM-1012A","","CDISC Library API","CDISC Conformance Rules (SDTMIG/ADaMIG)","https://library.cdisc.org/api/mdr/rules","CDISC","ADaM","ADaMIG 1.1","Record Data","ADaM-1012A","ADaM IG Conformance Rules","ADaM IG v1.1 §3.2","Standard secondary variable RACEN is populated but primary variable RACE is missing","For standard variable pairs defined in ADaM IG, if the numeric (*N) or character (*C) secondary variable is present, the primary variable must also be present. Uses RACE/RACEN as a representative standard pair defined in ADaM IG ADSL spec.","ADSL","ALL","","Record","Partially Executable","Published","","TRUE"
"ADaM-1018","AD1018","CDISC Library API","CDISC Conformance Rules (SDTMIG/ADaMIG)","https://library.cdisc.org/api/mdr/rules","CDISC","ADaM","ADaMIG 1.1","Record Data","ADaM-1018","ADaM IG Conformance Rules","ADaM IG v1.1 §4.4","ANLzzFL is populated but ANLzzFN is not populated","For Analysis Flag zz (ANLzzFL) and Analysis Flag zz (N) (ANLzzFN) variables, when ANLzzFL is populated, ANLzzFN must also be populated with the same analysis flag number.","ALL","BASIC DATA STRUCTURE","","Record","Partially Executable","Published","","TRUE"
"ADaM-1019","AD1019","CDISC Library API","CDISC Conformance Rules (SDTMIG/ADaMIG)","https://library.cdisc.org/api/mdr/rules","CDISC","ADaM","ADaMIG 1.1","Record Data","ADaM-1019","ADaM IG Conformance Rules","ADaM IG v1.1 §3.2","ADSL has neither TRT01P nor TRT02P (no treatment period variables found)","ADSL must include at least one period treatment variable (TRT01P or TRT02P) to indicate the treatment periods. Uses TRT01P/TRT02P as representative.","ADSL","ALL","","Record","Partially Executable","Published","","TRUE"
"ADaM-102","AD0102","CDISC Library API","CDISC Conformance Rules (SDTMIG/ADaMIG)","https://library.cdisc.org/api/mdr/rules","CDISC","ADaM","ADaMIG 1.1","Record Data","ADaM-102","ADaM IG Conformance Rules","ADaM IG v1.1 §4.2","There is no TRTxxP variable in ADSL for every unique xx value of APERIOD","The Analysis Period (APERIOD) values will be a number like 01. There must be a corresponding Planned Treatment for Period (TRTxxP) variable in ADSL for every unique APERIOD value.","ALL","BASIC DATA STRUCTURE, OCCURRENCE DATA STRUCTURE","","Record","Partially Executable","Published","","TRUE"
"ADaM-1020","AD1020","CDISC Library API","CDISC Conformance Rules (SDTMIG/ADaMIG)","https://library.cdisc.org/api/mdr/rules","CDISC","ADaM","ADaMIG 1.2","Record Data","ADaM-1020","ADaM IG Conformance Rules","ADaM IG v1.2 §3.1.4","*RFL variable (e.g. ABLFL) has a value other than Y, N, or null","A variable with a suffix of RFL (record-level flag) may have a value of Y, N, or null in ADaM-IG v1.2. Uses ABLFL as representative *RFL variable.","ALL","BDS","","Record","Partially Executable","Published","","TRUE"
"ADaM-1021","AD1021","CDISC Library API","CDISC Conformance Rules (SDTMIG/ADaMIG)","https://library.cdisc.org/api/mdr/rules","CDISC","ADaM","ADaMIG 1.2","Record Data","ADaM-1021","ADaM IG Conformance Rules","ADaM IG v1.2 §3.1.4","*PFL variable (e.g. ANL01FL) has a value other than Y, N, or null","A variable with a suffix of PFL (parameter-level flag) may have a value of Y, N, or null in ADaM-IG v1.2.","ALL","BDS","","Record","Partially Executable","Published","","TRUE"
"ADaM-1022","AD1022","CDISC Library API","CDISC Conformance Rules (SDTMIG/ADaMIG)","https://library.cdisc.org/api/mdr/rules","CDISC","ADaM","ADaMIG 1.2","Record Data","ADaM-1022","ADaM IG Conformance Rules","ADaM IG v1.2 §3.1.4","*RFN variable (e.g. ABLFN) has a value other than 0, 1, or null","A variable with a suffix of RFN (record-level numeric flag) may have a value of 0, 1, or null in ADaM-IG v1.2.","ALL","BDS","","Record","Partially Executable","Published","","TRUE"
"ADaM-1023","AD1023","CDISC Library API","CDISC Conformance Rules (SDTMIG/ADaMIG)","https://library.cdisc.org/api/mdr/rules","CDISC","ADaM","ADaMIG 1.2","Record Data","ADaM-1023","ADaM IG Conformance Rules","ADaM IG v1.2 §3.1.4","*PFN variable (e.g. ANL01FN) has a value other than 0, 1, or null","A variable with a suffix of PFN (parameter-level numeric flag) may have a value of 0, 1, or null in ADaM-IG v1.2.","ALL","BDS","","Record","Partially Executable","Published","","TRUE"
"ADaM-1024","AD1024","CDISC Library API","CDISC Conformance Rules (SDTMIG/ADaMIG)","https://library.cdisc.org/api/mdr/rules","CDISC","ADaM","ADaMIG 1.2","Record Data","ADaM-1024","ADaM IG Conformance Rules","ADaM IG v1.2 §3.3.3","APERIOD is missing but period timing variable TRT01P is present","In ADaM-IG v1.2, APERIOD is conditional: it is required when period-specific timing variables (TRTxxP, APHASEw) or subperiod variables (ASPER) are present in the dataset.","ALL","BDS","","Record","Partially Executable","Published","","TRUE"
"ADaM-1025","AD1025","CDISC Library API","CDISC Conformance Rules (SDTMIG/ADaMIG)","https://library.cdisc.org/api/mdr/rules","CDISC","ADaM","ADaMIG 1.2","Record Data","ADaM-1025","ADaM IG Conformance Rules","ADaM IG v1.2 §3.3.5","AWTARGET is present but AWU (Analysis Window Unit) is missing","In ADaM-IG v1.2, AWU (Analysis Window Unit) is the unit for AWTARGET, AWTDIFF, AWLO, and AWHI. When AWTARGET or AWTDIFF is present, AWU must also be present.","ALL","BDS","","Record","Partially Executable","Published","","TRUE"
"ADaM-1026","AD1026","CDISC Library API","CDISC Conformance Rules (SDTMIG/ADaMIG)","https://library.cdisc.org/api/mdr/rules","CDISC","ADaM","ADaMIG 1.2","Record Data","ADaM-1026","ADaM IG Conformance Rules","ADaM IG v1.2 §3.1.1","Secondary variable present without its primary variable (e.g. TRTPN present but TRTP absent)","In ADaM-IG v1.2, when any secondary variable (character or numeric) is included in a dataset, the corresponding primary variable must also be included. This generalizes the v1.1 rule for numeric-only pairs.","ALL","BDS","","Record","Partially Executable","Published","","TRUE"
"ADaM-1027","AD1027","CDISC Library API","CDISC Conformance Rules (SDTMIG/ADaMIG)","https://library.cdisc.org/api/mdr/rules","CDISC","ADaM","ADaMIG 1.2","Record Data","ADaM-1027","ADaM IG Conformance Rules","ADaM IG v1.2 §3.3.4","BCHG must be numeric","BCHG (Change from Baseline where lower BASE-AVAL is desired) must be a numeric variable when present in a BDS dataset.","ALL","BDS","","Record","Partially Executable","Published","","TRUE"
"ADaM-1028","AD1028","CDISC Library API","CDISC Conformance Rules (SDTMIG/ADaMIG)","https://library.cdisc.org/api/mdr/rules","CDISC","ADaM","ADaMIG 1.2","Record Data","ADaM-1028","ADaM IG Conformance Rules","ADaM IG v1.2 §3.3.4","BCHGCATy must be a character variable","BCHGCATy (Change from Baseline Category y, desired direction) must be a character variable when present.","ALL","BDS","","Record","Partially Executable","Published","","TRUE"
"ADaM-1029","AD1029","CDISC Library API","CDISC Conformance Rules (SDTMIG/ADaMIG)","https://library.cdisc.org/api/mdr/rules","CDISC","ADaM","ADaMIG 1.2","Record Data","ADaM-1029","ADaM IG Conformance Rules","ADaM IG v1.2 §3.3.4","BCHGCATy is present but its numeric secondary BCHGCAyN is absent","BCHGCAyN (numeric secondary of BCHGCATy) must be present when BCHGCATy is present.","ALL","BDS","","Record","Partially Executable","Published","","TRUE"
"ADaM-103","AD0103","CDISC Library API","CDISC Conformance Rules (SDTMIG/ADaMIG)","https://library.cdisc.org/api/mdr/rules","CDISC","ADaM","ADaMIG 1.1","Record Data","ADaM-103","ADaM IG Conformance Rules","ADaM IG v1.1 §4.2","There is no TRxxSDT variable in ADSL for every unique xx value of APERIOD","The Analysis Period (APERIOD) values will be a number like 01. There must be a corresponding Date of First Exposure in Period (TRxxSDT) variable in ADSL for every unique APERIOD value.","ALL","BASIC DATA STRUCTURE, OCCURRENCE DATA STRUCTURE","","Record","Partially Executable","Published","","TRUE"
"ADaM-1030","AD1030","CDISC Library API","CDISC Conformance Rules (SDTMIG/ADaMIG)","https://library.cdisc.org/api/mdr/rules","CDISC","ADaM","ADaMIG 1.2","Record Data","ADaM-1030","ADaM IG Conformance Rules","ADaM IG v1.2 §3.3.4","PBCHG must be numeric","PBCHG (Percent Change from Baseline, desired direction) must be a numeric variable when present.","ALL","BDS","","Record","Partially Executable","Published","","TRUE"
"ADaM-1031","AD1031","CDISC Library API","CDISC Conformance Rules (SDTMIG/ADaMIG)","https://library.cdisc.org/api/mdr/rules","CDISC","ADaM","ADaMIG 1.2","Record Data","ADaM-1031","ADaM IG Conformance Rules","ADaM IG v1.2 §3.3.4","PBCHGCAy must be a character variable","PBCHGCAy (Percent Change from Baseline Category y) must be a character variable when present.","ALL","BDS","","Record","Partially Executable","Published","","TRUE"
"ADaM-1032","AD1032","CDISC Library API","CDISC Conformance Rules (SDTMIG/ADaMIG)","https://library.cdisc.org/api/mdr/rules","CDISC","ADaM","ADaMIG 1.2","Record Data","ADaM-1032","ADaM IG Conformance Rules","ADaM IG v1.2 §3.3.4","PBCHGCAy is present but its numeric secondary PBCHGCyN is absent","PBCHGCyN (numeric secondary of PBCHGCAy) must be present when PBCHGCAy is present.","ALL","BDS","","Record","Partially Executable","Published","","TRUE"
"ADaM-1033","AD1033","CDISC Library API","CDISC Conformance Rules (SDTMIG/ADaMIG)","https://library.cdisc.org/api/mdr/rules","CDISC","ADaM","ADaMIG 1.2","Record Data","ADaM-1033","ADaM IG Conformance Rules","ADaM IG v1.2 §3.3.7","ATOXGRN is present but primary variable ATOXGR is absent","ATOXGRN (numeric version of ATOXGR) must be numeric when present and requires ATOXGR to also be present.","ALL","BDS","","Record","Partially Executable","Published","","TRUE"
"ADaM-1034","AD1034","CDISC Library API","CDISC Conformance Rules (SDTMIG/ADaMIG)","https://library.cdisc.org/api/mdr/rules","CDISC","ADaM","ADaMIG 1.2","Record Data","ADaM-1034","ADaM IG Conformance Rules","ADaM IG v1.2 §3.3.7","BTOXGRN is present but primary variable BTOXGR is absent","BTOXGRN (numeric version of BTOXGR) must require BTOXGR to also be present.","ALL","BDS","","Record","Partially Executable","Published","","TRUE"
"ADaM-1035","AD1035","CDISC Library API","CDISC Conformance Rules (SDTMIG/ADaMIG)","https://library.cdisc.org/api/mdr/rules","CDISC","ADaM","ADaMIG 1.2","Record Data","ADaM-1035","ADaM IG Conformance Rules","ADaM IG v1.2 §3.3.7","ATOXGRL must be a character toxicity grade variable","ATOXGRL (Analysis Toxicity Grade Low) must be a character variable following NCI CTCAE grade conventions for low-direction toxicity.","ALL","BDS","","Record","Partially Executable","Published","","TRUE"
"ADaM-1036","AD1036","CDISC Library API","CDISC Conformance Rules (SDTMIG/ADaMIG)","https://library.cdisc.org/api/mdr/rules","CDISC","ADaM","ADaMIG 1.2","Record Data","ADaM-1036","ADaM IG Conformance Rules","ADaM IG v1.2 §3.3.7","ATOXGRLN is present but primary variable ATOXGRL is absent","ATOXGRLN (numeric version of ATOXGRL) requires ATOXGRL to also be present.","ALL","BDS","","Record","Partially Executable","Published","","TRUE"
"ADaM-1037","AD1037","CDISC Library API","CDISC Conformance Rules (SDTMIG/ADaMIG)","https://library.cdisc.org/api/mdr/rules","CDISC","ADaM","ADaMIG 1.2","Record Data","ADaM-1037","ADaM IG Conformance Rules","ADaM IG v1.2 §3.3.7","ATOXGRH must be a character toxicity grade variable","ATOXGRH (Analysis Toxicity Grade High) must be a character variable for high-direction bi-directional toxicity.","ALL","BDS","","Record","Partially Executable","Published","","TRUE"
"ADaM-1038","AD1038","CDISC Library API","CDISC Conformance Rules (SDTMIG/ADaMIG)","https://library.cdisc.org/api/mdr/rules","CDISC","ADaM","ADaMIG 1.2","Record Data","ADaM-1038","ADaM IG Conformance Rules","ADaM IG v1.2 §3.3.7","ATOXGRHN is present but primary variable ATOXGRH is absent","ATOXGRHN (numeric version of ATOXGRH) requires ATOXGRH to also be present.","ALL","BDS","","Record","Partially Executable","Published","","TRUE"
"ADaM-1039","AD1039","CDISC Library API","CDISC Conformance Rules (SDTMIG/ADaMIG)","https://library.cdisc.org/api/mdr/rules","CDISC","ADaM","ADaMIG 1.2","Record Data","ADaM-1039","ADaM IG Conformance Rules","ADaM IG v1.2 §3.3.7","BTOXGRL must be a character toxicity grade variable","BTOXGRL (Baseline Toxicity Grade Low) must be a character variable for baseline low-direction bi-directional toxicity.","ALL","BDS","","Record","Partially Executable","Published","","TRUE"
"ADaM-104","AD0104","CDISC Library API","CDISC Conformance Rules (SDTMIG/ADaMIG)","https://library.cdisc.org/api/mdr/rules","CDISC","ADaM","ADaMIG 1.1","Record Data","ADaM-104","ADaM IG Conformance Rules","ADaM IG v1.1 §4.2","There is no TRxxEDT variable in ADSL for every unique xx value of APERIOD","The Analysis Period (APERIOD) values will be a number like 01. There must be a corresponding Date of Last Exposure in Period (TRxxEDT) variable in ADSL for every unique APERIOD value.","ALL","BASIC DATA STRUCTURE, OCCURRENCE DATA STRUCTURE","","Record","Partially Executable","Published","","TRUE"
"ADaM-1040","AD1040","CDISC Library API","CDISC Conformance Rules (SDTMIG/ADaMIG)","https://library.cdisc.org/api/mdr/rules","CDISC","ADaM","ADaMIG 1.2","Record Data","ADaM-1040","ADaM IG Conformance Rules","ADaM IG v1.2 §3.3.7","BTOXGRLN is present but primary variable BTOXGRL is absent","BTOXGRLN (numeric version of BTOXGRL) requires BTOXGRL to also be present.","ALL","BDS","","Record","Partially Executable","Published","","TRUE"
"ADaM-1041","AD1041","CDISC Library API","CDISC Conformance Rules (SDTMIG/ADaMIG)","https://library.cdisc.org/api/mdr/rules","CDISC","ADaM","ADaMIG 1.2","Record Data","ADaM-1041","ADaM IG Conformance Rules","ADaM IG v1.2 §3.3.7","BTOXGRH must be a character toxicity grade variable","BTOXGRH (Baseline Toxicity Grade High) must be a character variable for baseline high-direction bi-directional toxicity.","ALL","BDS","","Record","Partially Executable","Published","","TRUE"
"ADaM-1042","AD1042","CDISC Library API","CDISC Conformance Rules (SDTMIG/ADaMIG)","https://library.cdisc.org/api/mdr/rules","CDISC","ADaM","ADaMIG 1.2","Record Data","ADaM-1042","ADaM IG Conformance Rules","ADaM IG v1.2 §3.3.7","BTOXGRHN is present but primary variable BTOXGRH is absent","BTOXGRHN (numeric version of BTOXGRH) requires BTOXGRH to also be present.","ALL","BDS","","Record","Partially Executable","Published","","TRUE"
"ADaM-1043","AD1043","CDISC Library API","CDISC Conformance Rules (SDTMIG/ADaMIG)","https://library.cdisc.org/api/mdr/rules","CDISC","ADaM","ADaMIG 1.2","Record Data","ADaM-1043","ADaM IG Conformance Rules","ADaM IG v1.2 §3.3.7","ATOXDSCL must be a character variable","ATOXDSCL (Analysis Toxicity Description Low) must be a character variable when present.","ALL","BDS","","Record","Partially Executable","Published","","TRUE"
"ADaM-1044","AD1044","CDISC Library API","CDISC Conformance Rules (SDTMIG/ADaMIG)","https://library.cdisc.org/api/mdr/rules","CDISC","ADaM","ADaMIG 1.2","Record Data","ADaM-1044","ADaM IG Conformance Rules","ADaM IG v1.2 §3.3.7","ATOXDSCH must be a character variable","ATOXDSCH (Analysis Toxicity Description High) must be a character variable when present.","ALL","BDS","","Record","Partially Executable","Published","","TRUE"
"ADaM-1045","AD1045","CDISC Library API","CDISC Conformance Rules (SDTMIG/ADaMIG)","https://library.cdisc.org/api/mdr/rules","CDISC","ADaM","ADaMIG 1.2","Record Data","ADaM-1045","ADaM IG Conformance Rules","ADaM IG v1.2 §3.2.9","STRATyVN is present but primary variable STRATyV is absent","Stratification variables in ADSL must follow the naming convention STRATyV (character) with optional numeric secondary STRATyVN, where y is a positive integer index.","ALL","ADSL","","Record","Partially Executable","Published","","TRUE"
"ADaM-1046","AD1046","CDISC Library API","CDISC Conformance Rules (SDTMIG/ADaMIG)","https://library.cdisc.org/api/mdr/rules","CDISC","ADaM","ADaMIG 1.2","Record Data","ADaM-1046","ADaM IG Conformance Rules","ADaM IG v1.2 §2.3.1","Variable has same name as ADSL variable but different values, type, or label","A variable in any ADaM dataset that has the same name as an ADSL variable must have the same values, type, and label.","ALL","BDS","","Dataset","Fully Executable","Published","","TRUE"
"ADaM-1047","AD1047","CDISC Library API","CDISC Conformance Rules (SDTMIG/ADaMIG)","https://library.cdisc.org/api/mdr/rules","CDISC","ADaM","ADaMIG 1.2","Record Data","ADaM-1047","ADaM IG Conformance Rules","ADaM IG v1.2 §3.3.4","SHIFTy variable must be derived from an approved variable pair per ADaM-IG v1.2 Table 3.3.4.1","SHIFTy variables may only be based on the change in value of approved variable pairs, which in v1.2 include the bi-directional toxicity pairs (ATOXGRL/BTOXGRL, ATOXGRH/BTOXGRH) in addition to the standard ATOXGR/BTOXGR pair.","ALL","BDS","","Record","Reference","Published","","FALSE"
"ADaM-1048","AD1048","CDISC Library API","CDISC Conformance Rules (SDTMIG/ADaMIG)","https://library.cdisc.org/api/mdr/rules","CDISC","ADaM","ADaMIG 1.2","Record Data","ADaM-1048","ADaM IG Conformance Rules","ADaM IG v1.2 §3.3.4","BASETYPE is null for some records of a PARAMCD where it is non-null for other records","In ADaM-IG v1.2, if BASETYPE is used for any PARAM within a dataset, it should be non-null for all records for that PARAM within that dataset (not for all records in the entire dataset as stated in v1.1).","ALL","BDS","","Record","Partially Executable","Published","","TRUE"
"ADaM-1049","AD1049","CDISC Library API","CDISC Conformance Rules (SDTMIG/ADaMIG)","https://library.cdisc.org/api/mdr/rules","CDISC","ADaM","ADaMIG 1.2","Record Data","ADaM-1049","ADaM IG Conformance Rules","ADaM IG v1.2 §3.3.4","PARAMTYP is present; this variable was removed in ADaM-IG v1.2 (informational -- not a conformance violation)","PARAMTYP was fully removed from ADaM-IG v1.2. While using PARAMTYP is not a violation of the standard, it is no longer defined in v1.2 and should not be used in new datasets.","ALL","BDS","","Record","Fully Executable","Published","","TRUE"
"ADaM-105","AD0105","CDISC Library API","CDISC Conformance Rules (SDTMIG/ADaMIG)","https://library.cdisc.org/api/mdr/rules","CDISC","ADaM","ADaMIG 1.1","Record Data","ADaM-105","ADaM IG Conformance Rules","ADaM IG v1.1 §4.2","Inconsistent value for APERIODC across APERIOD values","Within a study, all APERIODC values must be the same for each unique value of APERIOD when the primary variable APERIOD is populated.","ALL","BASIC DATA STRUCTURE, OCCURRENCE DATA STRUCTURE","","Record","Fully Executable","Published","","TRUE"
"ADaM-105B","","CDISC Library API","CDISC Conformance Rules (SDTMIG/ADaMIG)","https://library.cdisc.org/api/mdr/rules","CDISC","ADaM","ADaMIG 1.1","Record Data","ADaM-105B","ADaM IG Conformance Rules","ADaM IG v1.1 §4.2","APERIOD is present but APERIODC is not present","Within a study, all APERIODC values must be the same for each unique value of APERIOD. Variant B: when APERIOD is populated, APERIODC must also be populated.","ALL","BASIC DATA STRUCTURE, OCCURRENCE DATA STRUCTURE","","Record","Fully Executable","Published","","TRUE"
"ADaM-106","AD0106","CDISC Library API","CDISC Conformance Rules (SDTMIG/ADaMIG)","https://library.cdisc.org/api/mdr/rules","CDISC","ADaM","ADaMIG 1.1","Record Data","ADaM-106","ADaM IG Conformance Rules","ADaM IG v1.1 §4.2","Inconsistent value for APERIOD across APERIODC values","Within a study, all APERIOD values must be the same for each unique value of APERIODC when APERIODC is populated.","ALL","BASIC DATA STRUCTURE, OCCURRENCE DATA STRUCTURE","","Record","Fully Executable","Published","","TRUE"
"ADaM-106B","","CDISC Library API","CDISC Conformance Rules (SDTMIG/ADaMIG)","https://library.cdisc.org/api/mdr/rules","CDISC","ADaM","ADaMIG 1.1","Record Data","ADaM-106B","ADaM IG Conformance Rules","ADaM IG v1.1 §4.2","APERIODC is present but APERIOD is not present","Within a study, all APERIOD values must be the same for each unique value of APERIODC. Variant B: when APERIODC is populated, APERIOD must also be populated.","ALL","BASIC DATA STRUCTURE, OCCURRENCE DATA STRUCTURE","","Record","Fully Executable","Published","","TRUE"
"ADaM-109-SD","AD0109","CDISC Library API","CDISC Conformance Rules (SDTMIG/ADaMIG)","https://library.cdisc.org/api/mdr/rules","CDISC","ADaM","ADaMIG 1.1","Record Data","ADaM-109-SD","ADaM IG Conformance Rules","ADaM IG v1.1 §4.3","Inconsistent value for AVISITN across AVISIT values","Within a study, all AVISITN values must be the same for each unique value of AVISIT when the primary variable AVISIT is populated.","ALL","BASIC DATA STRUCTURE, OCCURRENCE DATA STRUCTURE","","Record","Partially Executable","Published","","TRUE"
"ADaM-110-SD","AD0110","CDISC Library API","CDISC Conformance Rules (SDTMIG/ADaMIG)","https://library.cdisc.org/api/mdr/rules","CDISC","ADaM","ADaMIG 1.1","Record Data","ADaM-110-SD","ADaM IG Conformance Rules","ADaM IG v1.1 §4.3","Inconsistent value for AVISIT across AVISITN values","Within a study, all AVISIT values must be the same for each unique value of AVISITN when the numeric variable AVISITN is populated.","ALL","BASIC DATA STRUCTURE, OCCURRENCE DATA STRUCTURE","","Record","Partially Executable","Published","","TRUE"
"ADaM-111","AD0111","CDISC Library API","CDISC Conformance Rules (SDTMIG/ADaMIG)","https://library.cdisc.org/api/mdr/rules","CDISC","ADaM","ADaMIG 1.1","Record Data","ADaM-111","ADaM IG Conformance Rules","ADaM IG v1.1 §4.4","ARELTM is present, but ARELTMU is not present","When ARELTM (Analysis Relative Time) is present, the Anchor Time variable and ARELTMU (Analysis Relative Time unit) must also be included in the dataset.","ALL","BASIC DATA STRUCTURE","","Record","Fully Executable","Published","","TRUE"
"ADaM-112","AD0112","CDISC Library API","CDISC Conformance Rules (SDTMIG/ADaMIG)","https://library.cdisc.org/api/mdr/rules","CDISC","ADaM","ADaMIG 1.1","Record Data","ADaM-112","ADaM IG Conformance Rules","ADaM IG v1.1 §4.4","Only one of these variables is populated: ARELTM, ARELTMU","If ARELTMU (Analysis Relative Time unit) or ARELTM (Analysis Relative Time) is populated, then both must be populated together.","ALL","BASIC DATA STRUCTURE","","Record","Fully Executable","Published","","TRUE"
"ADaM-113","AD0113","CDISC Library API","CDISC Conformance Rules (SDTMIG/ADaMIG)","https://library.cdisc.org/api/mdr/rules","CDISC","ADaM","ADaMIG 1.1","Record Data","ADaM-113","ADaM IG Conformance Rules","ADaM IG v1.1 §4.4","ARELTMU is present, but ARELTM is not present","When ARELTM is present, the anchor time variable and ARELTMU must also be included in the dataset. ARELTMU is present but ARELTM is not present.","ALL","BASIC DATA STRUCTURE","","Record","Partially Executable","Published","","TRUE"
"ADaM-117","AD0117","CDISC Library API","CDISC Conformance Rules (SDTMIG/ADaMIG)","https://library.cdisc.org/api/mdr/rules","CDISC","ADaM","ADaMIG 1.1","Record Data","ADaM-117","ADaM IG Conformance Rules","ADaM IG v1.1 §4.3","Inconsistent value for ATPT across ATPTN values","Within a study, all ATPT values must be the same for each unique value of ATPTN when the numeric variable ATPTN is populated.","ALL","BASIC DATA STRUCTURE","","Record","Fully Executable","Published","","TRUE"
"ADaM-117B","","CDISC Library API","CDISC Conformance Rules (SDTMIG/ADaMIG)","https://library.cdisc.org/api/mdr/rules","CDISC","ADaM","ADaMIG 1.1","Record Data","ADaM-117B","ADaM IG Conformance Rules","ADaM IG v1.1 §4.3","ATPT is present but ATPTN is not present","Within a study, all ATPT values must be the same for each unique value of ATPTN. Variant B: when ATPT is populated, ATPTN must also be populated.","ALL","BASIC DATA STRUCTURE","","Record","Fully Executable","Published","","TRUE"
"ADaM-118","AD0118","CDISC Library API","CDISC Conformance Rules (SDTMIG/ADaMIG)","https://library.cdisc.org/api/mdr/rules","CDISC","ADaM","ADaMIG 1.1","Record Data","ADaM-118","ADaM IG Conformance Rules","ADaM IG v1.1 §4.3","Inconsistent value for ATPTN across ATPT values","Within a study, all ATPTN values must be the same for each unique value of ATPT when the primary variable ATPT is populated.","ALL","BASIC DATA STRUCTURE","","Record","Fully Executable","Published","","TRUE"
"ADaM-118B","","CDISC Library API","CDISC Conformance Rules (SDTMIG/ADaMIG)","https://library.cdisc.org/api/mdr/rules","CDISC","ADaM","ADaMIG 1.1","Record Data","ADaM-118B","ADaM IG Conformance Rules","ADaM IG v1.1 §4.3","ATPTN is present but ATPT is not present","Within a study, all ATPTN values must be the same for each unique value of ATPT. Variant B: when ATPTN is populated, ATPT must also be populated.","ALL","BASIC DATA STRUCTURE","","Record","Fully Executable","Published","","TRUE"
"ADaM-121","AD0121","CDISC Library API","CDISC Conformance Rules (SDTMIG/ADaMIG)","https://library.cdisc.org/api/mdr/rules","CDISC","ADaM","ADaMIG 1.1","Record Data","ADaM-121","ADaM IG Conformance Rules","ADaM IG v1.1 §3.2","Start date is greater than end date","Any variable ending in SDT (Start Date) must have a value less than or equal to its corresponding EDT (End Date) variable value.","ALL","BASIC DATA STRUCTURE, OCCURRENCE DATA STRUCTURE","","Record","Partially Executable","Published","","TRUE"
"ADaM-122","AD0122","CDISC Library API","CDISC Conformance Rules (SDTMIG/ADaMIG)","https://library.cdisc.org/api/mdr/rules","CDISC","ADaM","ADaMIG 1.1","Record Data","ADaM-122","ADaM IG Conformance Rules","ADaM IG v1.1 §3.2","Start datetime is greater than end datetime","Any variable ending in SDTM (Start Datetime) must have a value less than or equal to its corresponding EDTM (End Datetime) variable value.","ALL","BASIC DATA STRUCTURE, OCCURRENCE DATA STRUCTURE","","Record","Partially Executable","Published","","TRUE"
"ADaM-123","AD0123","CDISC Library API","CDISC Conformance Rules (SDTMIG/ADaMIG)","https://library.cdisc.org/api/mdr/rules","CDISC","ADaM","ADaMIG 1.1","Record Data","ADaM-123","ADaM IG Conformance Rules","ADaM IG v1.1 §4.1","Inconsistent value for PARAMTYP across PARAMCD values","Within a study, all PARAMTYP values must be the same for each unique value of PARAMCD.","ALL","BASIC DATA STRUCTURE","","Record","Fully Executable","Published","","TRUE"
"ADaM-124-SD","AD0124","CDISC Library API","CDISC Conformance Rules (SDTMIG/ADaMIG)","https://library.cdisc.org/api/mdr/rules","CDISC","ADaM","ADaMIG 1.1","Record Data","ADaM-124-SD","ADaM IG Conformance Rules","ADaM IG v1.1 §4.1","Inconsistent value for PARCATy across PARAMCD values","Within a study, all PARCATy values must be the same for each unique value of PARAMCD when PARCATy is populated. Checks PARCAT1 as representative.","ALL","BASIC DATA STRUCTURE","","Record","Partially Executable","Published","","TRUE"
"ADaM-125","AD0125","CDISC Library API","CDISC Conformance Rules (SDTMIG/ADaMIG)","https://library.cdisc.org/api/mdr/rules","CDISC","ADaM","ADaMIG 1.1","Record Data","ADaM-125","ADaM IG Conformance Rules","ADaM IG v1.1 §4.1","Inconsistent PARCATy value for PARAMCD across datasets","Within a study, all PARCATy values must be the same for each unique value of PARAMCD across all datasets. Uses PARCAT1 as representative.","ALL","BASIC DATA STRUCTURE","","Record","Partially Executable","Published","","TRUE"
"ADaM-125B","","CDISC Library API","CDISC Conformance Rules (SDTMIG/ADaMIG)","https://library.cdisc.org/api/mdr/rules","CDISC","ADaM","ADaMIG 1.1","Record Data","ADaM-125B","ADaM IG Conformance Rules","ADaM IG v1.1 §4.1","PARCAT1 is present but PARCAT1N is not present","Within a study, all PARCATy values must be the same for each unique value of PARAMCD. Variant B: when PARCAT1 is populated, PARCAT1N must also be populated.","ALL","BASIC DATA STRUCTURE","","Record","Fully Executable","Published","","TRUE"
"ADaM-126","AD0126","CDISC Library API","CDISC Conformance Rules (SDTMIG/ADaMIG)","https://library.cdisc.org/api/mdr/rules","CDISC","ADaM","ADaMIG 1.1","Record Data","ADaM-126","ADaM IG Conformance Rules","ADaM IG v1.1 §4.1","Inconsistent value for PARCATyN across PARAMCD values","Within a study, all PARCATyN values must be the same for each unique value of PARAMCD when PARCATyN is populated.","ALL","BASIC DATA STRUCTURE","","Record","Partially Executable","Published","","TRUE"
"ADaM-126B","","CDISC Library API","CDISC Conformance Rules (SDTMIG/ADaMIG)","https://library.cdisc.org/api/mdr/rules","CDISC","ADaM","ADaMIG 1.1","Record Data","ADaM-126B","ADaM IG Conformance Rules","ADaM IG v1.1 §4.1","PARCAT1N is present but PARCAT1 is not present","Within a study, all PARCATyN values must be the same for each unique value of PARAMCD. Variant B: when PARCAT1N is populated, PARCAT1 must also be populated.","ALL","BASIC DATA STRUCTURE","","Record","Fully Executable","Published","","TRUE"
"ADaM-127-SD","AD0127","CDISC Library API","CDISC Conformance Rules (SDTMIG/ADaMIG)","https://library.cdisc.org/api/mdr/rules","CDISC","ADaM","ADaMIG 1.1","Record Data","ADaM-127-SD","ADaM IG Conformance Rules","ADaM IG v1.1 §4.4","Baseline value BASE populated without corresponding ABLFL=Y record","Within a given Subject's PARAMCD, a baseline value (BASE or BASEC) must have a corresponding ABLFL=Y record. This single-dataset variant checks that BASE is not populated without ABLFL being set.","ALL","BASIC DATA STRUCTURE","","Record","Partially Executable","Published","","TRUE"
"ADaM-127A","","CDISC Library API","CDISC Conformance Rules (SDTMIG/ADaMIG)","https://library.cdisc.org/api/mdr/rules","CDISC","ADaM","ADaMIG 1.1","Record Data","ADaM-127A","ADaM IG Conformance Rules","ADaM IG v1.1 §3.3.5","BASE or BASEC is present but ABLFL is missing","When BASE or BASEC is populated, ABLFL must also be present to identify the baseline record. Without ABLFL, the baseline assignment is ambiguous.","ALL","BDS","","Record","Fully Executable","Published","","TRUE"
"ADaM-128-SD","AD0128","CDISC Library API","CDISC Conformance Rules (SDTMIG/ADaMIG)","https://library.cdisc.org/api/mdr/rules","CDISC","ADaM","ADaMIG 1.1","Record Data","ADaM-128-SD","ADaM IG Conformance Rules","ADaM IG v1.1 §3.3.5","BASE has inconsistent values within the same dataset for same subject+parameter","Single-dataset variant of ADaM-128. BASE must be consistent within USUBJID+PARAMCD in a single dataset.","ALL","BDS","","Record","Fully Executable","Published","","TRUE"
"ADaM-128","AD0128","CDISC Library API","CDISC Conformance Rules (SDTMIG/ADaMIG)","https://library.cdisc.org/api/mdr/rules","CDISC","ADaM","ADaMIG 1.1","Record Data","ADaM-128","ADaM IG Conformance Rules","ADaM IG v1.1 §3.3.5","BASE has inconsistent values across records for the same subject and parameter","BASE (Baseline Value) must be consistent across all records for the same subject and parameter. Multiple different BASE values for the same USUBJID and PARAMCD indicate an error.","ALL","BDS","","Record","Fully Executable","Published","","TRUE"
"ADaM-129-SD","AD0129","CDISC Library API","CDISC Conformance Rules (SDTMIG/ADaMIG)","https://library.cdisc.org/api/mdr/rules","CDISC","ADaM","ADaMIG 1.1","Record Data","ADaM-129-SD","ADaM IG Conformance Rules","ADaM IG v1.1 §3.3.5","BASEC has inconsistent values for the same subject and parameter","BASEC (Baseline Value Character) must be consistent within USUBJID+PARAMCD.","ALL","BDS","","Record","Fully Executable","Published","","TRUE"
"ADaM-130-SD","AD0130","CDISC Library API","CDISC Conformance Rules (SDTMIG/ADaMIG)","https://library.cdisc.org/api/mdr/rules","CDISC","ADaM","ADaMIG 1.1","Record Data","ADaM-130-SD","ADaM IG Conformance Rules","ADaM IG v1.1 §3.3.5","BASEC is inconsistent for the same subject+parameter within dataset","BASEC must be consistent within USUBJID+PARAMCD in a single BDS dataset.","ALL","BDS","","Record","Fully Executable","Published","","TRUE"
"ADaM-131-SD","AD0131","CDISC Library API","CDISC Conformance Rules (SDTMIG/ADaMIG)","https://library.cdisc.org/api/mdr/rules","CDISC","ADaM","ADaMIG 1.1","Record Data","ADaM-131-SD","ADaM IG Conformance Rules","ADaM IG v1.1 §3.3.5","CHG does not equal AVAL - BASE (single-dataset check)","Single-dataset variant of ADaM-131. CHG = AVAL - BASE in same dataset.","ALL","BDS","","Record","Fully Executable","Published","","TRUE"
"ADaM-131","AD0131","CDISC Library API","CDISC Conformance Rules (SDTMIG/ADaMIG)","https://library.cdisc.org/api/mdr/rules","CDISC","ADaM","ADaMIG 1.1","Record Data","ADaM-131","ADaM IG Conformance Rules","ADaM IG v1.1 §3.3.5","CHG does not equal AVAL - BASE (change from baseline calculation error)","When all three are populated, CHG must equal AVAL - BASE within rounding tolerance.","ALL","BDS","","Record","Fully Executable","Published","","TRUE"
"ADaM-132-SD","AD0132","CDISC Library API","CDISC Conformance Rules (SDTMIG/ADaMIG)","https://library.cdisc.org/api/mdr/rules","CDISC","ADaM","ADaMIG 1.1","Record Data","ADaM-132-SD","ADaM IG Conformance Rules","ADaM IG v1.1 §3.3.5","R2BASE does not equal AVAL/BASE (single-dataset check)","Single-dataset variant: R2BASE = AVAL/BASE when BASE != 0.","ALL","BDS","","Record","Fully Executable","Published","","TRUE"
"ADaM-132","AD0132","CDISC Library API","CDISC Conformance Rules (SDTMIG/ADaMIG)","https://library.cdisc.org/api/mdr/rules","CDISC","ADaM","ADaMIG 1.1","Record Data","ADaM-132","ADaM IG Conformance Rules","ADaM IG v1.1 §3.3.5","R2BASE does not equal AVAL / BASE (ratio to baseline calculation error)","When all three are populated and BASE != 0, R2BASE = AVAL / BASE.","ALL","BDS","","Record","Fully Executable","Published","","TRUE"
"ADaM-132A","","CDISC Library API","CDISC Conformance Rules (SDTMIG/ADaMIG)","https://library.cdisc.org/api/mdr/rules","CDISC","ADaM","ADaMIG 1.1","Record Data","ADaM-132A","ADaM IG Conformance Rules","ADaM IG v1.1 §3.3.5","R2BASE is populated when BASE = 0 (division by zero is not valid)","When BASE equals 0, R2BASE cannot be computed (division by zero). R2BASE should be null when BASE = 0.","ALL","BDS","","Record","Fully Executable","Published","","TRUE"
"ADaM-132B","","CDISC Library API","CDISC Conformance Rules (SDTMIG/ADaMIG)","https://library.cdisc.org/api/mdr/rules","CDISC","ADaM","ADaMIG 1.1","Record Data","ADaM-132B","ADaM IG Conformance Rules","ADaM IG v1.1 §3.3.5","CHG/PCHG/R2BASE is populated but BASE is missing (required for derivation)","When CHG, PCHG, or R2BASE is present, BASE must also be present since these are all derived from BASE.","ALL","BDS","","Record","Fully Executable","Published","","TRUE"
"ADaM-133-SD","AD0133","CDISC Library API","CDISC Conformance Rules (SDTMIG/ADaMIG)","https://library.cdisc.org/api/mdr/rules","CDISC","ADaM","ADaMIG 1.1","Record Data","ADaM-133-SD","ADaM IG Conformance Rules","ADaM IG v1.1 §3.3.6","R2A1LO does not equal AVAL/A1LO (single-dataset check)","Single-dataset variant: R2A1LO = AVAL/A1LO when A1LO != 0.","ALL","BDS","","Record","Fully Executable","Published","","TRUE"
"ADaM-133","AD0133","CDISC Library API","CDISC Conformance Rules (SDTMIG/ADaMIG)","https://library.cdisc.org/api/mdr/rules","CDISC","ADaM","ADaMIG 1.1","Record Data","ADaM-133","ADaM IG Conformance Rules","ADaM IG v1.1 §3.3.6","R2A1LO does not equal AVAL / A1LO (ratio to lower limit calculation error)","R2A1LO must equal AVAL divided by A1LO when A1LO != 0.","ALL","BDS","","Record","Fully Executable","Published","","TRUE"
"ADaM-133A","","CDISC Library API","CDISC Conformance Rules (SDTMIG/ADaMIG)","https://library.cdisc.org/api/mdr/rules","CDISC","ADaM","ADaMIG 1.1","Record Data","ADaM-133A","ADaM IG Conformance Rules","ADaM IG v1.1 §3.3.6","R2A1LO is populated but A1LO is missing","When R2A1LO is present, A1LO must also be present as it is required for the ratio calculation.","ALL","BDS","","Record","Fully Executable","Published","","TRUE"
"ADaM-133B","","CDISC Library API","CDISC Conformance Rules (SDTMIG/ADaMIG)","https://library.cdisc.org/api/mdr/rules","CDISC","ADaM","ADaMIG 1.1","Record Data","ADaM-133B","ADaM IG Conformance Rules","ADaM IG v1.1 §3.3.6","R2A1LO is populated but AVAL is missing","When R2A1LO is present, AVAL must also be present.","ALL","BDS","","Record","Fully Executable","Published","","TRUE"
"ADaM-133C","","CDISC Library API","CDISC Conformance Rules (SDTMIG/ADaMIG)","https://library.cdisc.org/api/mdr/rules","CDISC","ADaM","ADaMIG 1.1","Record Data","ADaM-133C","ADaM IG Conformance Rules","ADaM IG v1.1 §3.3.6","R2A1LO is populated when A1LO = 0 (division by zero not valid)","When A1LO = 0, R2A1LO should be null (division by zero).","ALL","BDS","","Record","Fully Executable","Published","","TRUE"
"ADaM-134-SD","AD0134","CDISC Library API","CDISC Conformance Rules (SDTMIG/ADaMIG)","https://library.cdisc.org/api/mdr/rules","CDISC","ADaM","ADaMIG 1.1","Record Data","ADaM-134-SD","ADaM IG Conformance Rules","ADaM IG v1.1 §3.3.6","R2A1HI does not equal AVAL/A1HI (single-dataset check)","Single-dataset: R2A1HI = AVAL/A1HI when A1HI != 0.","ALL","BDS","","Record","Fully Executable","Published","","TRUE"
"ADaM-134","AD0134","CDISC Library API","CDISC Conformance Rules (SDTMIG/ADaMIG)","https://library.cdisc.org/api/mdr/rules","CDISC","ADaM","ADaMIG 1.1","Record Data","ADaM-134","ADaM IG Conformance Rules","ADaM IG v1.1 §3.3.6","R2A1HI does not equal AVAL / A1HI (ratio to upper limit calculation error)","R2A1HI must equal AVAL/A1HI when A1HI != 0.","ALL","BDS","","Record","Fully Executable","Published","","TRUE"
"ADaM-134A","","CDISC Library API","CDISC Conformance Rules (SDTMIG/ADaMIG)","https://library.cdisc.org/api/mdr/rules","CDISC","ADaM","ADaMIG 1.1","Record Data","ADaM-134A","ADaM IG Conformance Rules","ADaM IG v1.1 §3.3.6","R2A1HI is populated but A1HI is missing","When R2A1HI is present, A1HI must also be present.","ALL","BDS","","Record","Fully Executable","Published","","TRUE"
"ADaM-134B","","CDISC Library API","CDISC Conformance Rules (SDTMIG/ADaMIG)","https://library.cdisc.org/api/mdr/rules","CDISC","ADaM","ADaMIG 1.1","Record Data","ADaM-134B","ADaM IG Conformance Rules","ADaM IG v1.1 §3.3.6","R2A1HI is populated but AVAL is missing","When R2A1HI is present, AVAL must be present.","ALL","BDS","","Record","Fully Executable","Published","","TRUE"
"ADaM-134C","","CDISC Library API","CDISC Conformance Rules (SDTMIG/ADaMIG)","https://library.cdisc.org/api/mdr/rules","CDISC","ADaM","ADaMIG 1.1","Record Data","ADaM-134C","ADaM IG Conformance Rules","ADaM IG v1.1 §3.3.6","R2A1HI is populated when A1HI = 0 (division by zero not valid)","When A1HI = 0, R2A1HI should be null.","ALL","BDS","","Record","Fully Executable","Published","","TRUE"
"ADaM-135-SD","AD0135","CDISC Library API","CDISC Conformance Rules (SDTMIG/ADaMIG)","https://library.cdisc.org/api/mdr/rules","CDISC","ADaM","ADaMIG 1.1","Record Data","ADaM-135-SD","ADaM IG Conformance Rules","ADaM IG v1.1 §3.3.7","SHIFT1 has inconsistent values for the same subject+parameter","SHIFT1 (Shift from Baseline) must be consistent within USUBJID+PARAMCD.","ALL","BDS","","Record","Partially Executable","Published","","TRUE"
"ADaM-137","AD0137","CDISC Library API","CDISC Conformance Rules (SDTMIG/ADaMIG)","https://library.cdisc.org/api/mdr/rules","CDISC","ADaM","ADaMIG 1.1","Record Data","ADaM-137","ADaM IG Conformance Rules","ADaM IG v1.1 §3.3.8","CRIT1FL is populated but CRIT1 (criterion definition) is missing","When CRIT1FL (Criterion 1 Flag) is populated, CRIT1 (Criterion 1 definition) must also be present to document the criterion text.","ALL","BDS","","Record","Fully Executable","Published","","TRUE"
"ADaM-143","AD0143","CDISC Library API","CDISC Conformance Rules (SDTMIG/ADaMIG)","https://library.cdisc.org/api/mdr/rules","CDISC","ADaM","ADaMIG 1.1","Record Data","ADaM-143","ADaM IG Conformance Rules","ADaM IG v1.1 §3.3.1","PARAMCD value does not conform to naming convention (max 8 chars, starts with letter/underscore, A-Z/0-9/_ only)","PARAMCD must be at most 8 characters, start with a letter (A-Z) or underscore, and contain only letters, numbers, and underscores. Violations indicate non-conformant parameter codes.","ALL","BDS","","Record","Fully Executable","Published","","TRUE"
"ADaM-148","AD0148","CDISC Library API","CDISC Conformance Rules (SDTMIG/ADaMIG)","https://library.cdisc.org/api/mdr/rules","CDISC","ADaM","ADaMIG 1.1","Record Data","ADaM-148","ADaM IG Conformance Rules","ADaM IG v1.1 §3.3.1","PARAMN is not an integer value","PARAMN (Numeric Value of Parameter Name) must be a non-missing integer value. Decimal values or non-numeric values are not permitted.","ALL","BDS","","Record","Fully Executable","Published","","TRUE"
"ADaM-152","AD0152","CDISC Library API","CDISC Conformance Rules (SDTMIG/ADaMIG)","https://library.cdisc.org/api/mdr/rules","CDISC","ADaM","ADaMIG 1.1","Record Data","ADaM-152","ADaM IG Conformance Rules","ADaM IG v1.1 §3.3.5","ABLFL = Y but BASE does not equal AVAL (baseline value must match analysis value on baseline record)","When ABLFL = Y, the record IS the baseline, so BASE must equal AVAL for that record.","ALL","BDS","","Record","Fully Executable","Published","","TRUE"
"ADaM-156","AD0156","CDISC Library API","CDISC Conformance Rules (SDTMIG/ADaMIG)","https://library.cdisc.org/api/mdr/rules","CDISC","ADaM","ADaMIG 1.1","Record Data","ADaM-156","ADaM IG Conformance Rules","ADaM IG v1.1 §3.3.8","CRITyFL (CRIT1FL) is present but CRITy (CRIT1) is missing","CRITyFL requires corresponding CRITy variable. CRIT1FL requires CRIT1.","ALL","BDS","","Record","Fully Executable","Published","","TRUE"
"ADaM-157","AD0157","CDISC Library API","CDISC Conformance Rules (SDTMIG/ADaMIG)","https://library.cdisc.org/api/mdr/rules","CDISC","ADaM","ADaMIG 1.1","Record Data","ADaM-157","ADaM IG Conformance Rules","ADaM IG v1.1 §3.3.8","CRITy (CRIT1) is present but CRITyFL (CRIT1FL) is missing","CRITy requires corresponding CRITyFL variable.","ALL","BDS","","Record","Fully Executable","Published","","TRUE"
"ADaM-159","AD0159","CDISC Library API","CDISC Conformance Rules (SDTMIG/ADaMIG)","https://library.cdisc.org/api/mdr/rules","CDISC","ADaM","ADaMIG 1.1","Record Data","ADaM-159","ADaM IG Conformance Rules","ADaM IG v1.1 §3.3.2","AWTDIFF is populated but AWTARGET is missing","When AWTDIFF is present, AWTARGET must also be present since the difference is calculated relative to the target.","ALL","BDS","","Record","Fully Executable","Published","","TRUE"
"ADaM-160","AD0160","CDISC Library API","CDISC Conformance Rules (SDTMIG/ADaMIG)","https://library.cdisc.org/api/mdr/rules","CDISC","ADaM","ADaMIG 1.1","Record Data","ADaM-160","ADaM IG Conformance Rules","ADaM IG v1.1 §4.3","AWU is present, but both AWLO and AWHI are not present","If Analysis Window Unit (AWU) variable is present, then Analysis Window Lower Bound (AWLO) and Analysis Window Upper Bound (AWHI) must also be present.","ALL","BASIC DATA STRUCTURE","","Record","Fully Executable","Published","","TRUE"
"ADaM-163","AD0163","CDISC Library API","CDISC Conformance Rules (SDTMIG/ADaMIG)","https://library.cdisc.org/api/mdr/rules","CDISC","ADaM","ADaMIG 1.1","Record Data","ADaM-163","ADaM IG Conformance Rules","ADaM IG v1.1 §3.3.7","BTOXGR is populated but ATOXGR is missing","When BTOXGR is present, ATOXGR must also be present for toxicity shift analysis.","ALL","BDS","","Record","Fully Executable","Published","","TRUE"
"ADaM-164","AD0164","CDISC Library API","CDISC Conformance Rules (SDTMIG/ADaMIG)","https://library.cdisc.org/api/mdr/rules","CDISC","ADaM","ADaMIG 1.1","Record Data","ADaM-164","ADaM IG Conformance Rules","ADaM IG v1.1 §3.3.7","ABLFL=Y but BTOXGR does not equal ATOXGR on baseline record","On the baseline record (ABLFL=Y), BTOXGR must equal ATOXGR.","ALL","BDS","","Record","Fully Executable","Published","","TRUE"
"ADaM-165","AD0165","CDISC Library API","CDISC Conformance Rules (SDTMIG/ADaMIG)","https://library.cdisc.org/api/mdr/rules","CDISC","ADaM","ADaMIG 1.1","Record Data","ADaM-165","ADaM IG Conformance Rules","ADaM IG v1.1 §3.3.5","ABLFL=Y but BASEC does not equal AVALC (baseline character value mismatch)","On baseline record (ABLFL=Y), BASEC must equal AVALC.","ALL","BDS","","Record","Fully Executable","Published","","TRUE"
"ADaM-166","AD0166","CDISC Library API","CDISC Conformance Rules (SDTMIG/ADaMIG)","https://library.cdisc.org/api/mdr/rules","CDISC","ADaM","ADaMIG 1.1","Record Data","ADaM-166","ADaM IG Conformance Rules","ADaM IG v1.1 §3.3.6","BNRIND is populated but ANRIND is missing","When BNRIND is present, ANRIND must also be present.","ALL","BDS","","Record","Fully Executable","Published","","TRUE"
"ADaM-167","AD0167","CDISC Library API","CDISC Conformance Rules (SDTMIG/ADaMIG)","https://library.cdisc.org/api/mdr/rules","CDISC","ADaM","ADaMIG 1.1","Record Data","ADaM-167","ADaM IG Conformance Rules","ADaM IG v1.1 §3.3.6","ABLFL=Y but BNRIND does not equal ANRIND on baseline record","On baseline record (ABLFL=Y), BNRIND must equal ANRIND.","ALL","BDS","","Record","Fully Executable","Published","","TRUE"
"ADaM-168","AD0168","CDISC Library API","CDISC Conformance Rules (SDTMIG/ADaMIG)","https://library.cdisc.org/api/mdr/rules","CDISC","ADaM","ADaMIG 1.1","Record Data","ADaM-168","ADaM IG Conformance Rules","ADaM IG v1.1 §3.3.7","BTOXGR is inconsistent for the same subject+parameter","BTOXGR must be consistent within USUBJID+PARAMCD across all records.","ALL","BDS","","Record","Fully Executable","Published","","TRUE"
"ADaM-169","AD0169","CDISC Library API","CDISC Conformance Rules (SDTMIG/ADaMIG)","https://library.cdisc.org/api/mdr/rules","CDISC","ADaM","ADaMIG 1.1","Record Data","ADaM-169","ADaM IG Conformance Rules","ADaM IG v1.1 §3.5","CNSR is not a valid non-negative integer","CNSR (Censor) must be a non-negative integer. Typically 0 = event, 1 = censored.","ADTTE","ALL","","Record","Fully Executable","Published","","TRUE"
"ADaM-170","AD0170","CDISC Library API","CDISC Conformance Rules (SDTMIG/ADaMIG)","https://library.cdisc.org/api/mdr/rules","CDISC","ADaM","ADaMIG 1.1","Record Data","ADaM-170","ADaM IG Conformance Rules","ADaM IG v1.1 §5.2","STARTDT is present, but CNSR is not present","If Time-to-Event Origin Date for Subject (STARTDT) variable is present, then Censor (CNSR) must also be present.","ADTTE","BASIC DATA STRUCTURE","","Record","Fully Executable","Published","","TRUE"
"ADaM-176","AD0176","CDISC Library API","CDISC Conformance Rules (SDTMIG/ADaMIG)","https://library.cdisc.org/api/mdr/rules","CDISC","ADaM","ADaMIG 1.1","Record Data","ADaM-176","ADaM IG Conformance Rules","ADaM IG v1.1 §3.3.5","ABLFL has a value other than Y or null","ABLFL (Analysis Baseline Flag) must have a value of Y or null. A value of N is not valid; null indicates the record is not the analysis baseline.","ALL","BDS","","Record","Fully Executable","Published","","TRUE"
"ADaM-178","AD0178","CDISC Library API","CDISC Conformance Rules (SDTMIG/ADaMIG)","https://library.cdisc.org/api/mdr/rules","CDISC","ADaM","ADaMIG 1.1","Record Data","ADaM-178","ADaM IG Conformance Rules","ADaM IG v1.1 §4.4","ANLzzFL value is not Y or null","A variable of form ANLzzFL (analysis record flag) must be Y or null. Uses ANL01FL as a representative variable.","ALL","BASIC DATA STRUCTURE","","Record","Partially Executable","Published","","TRUE"
"ADaM-196","AD0196","CDISC Library API","CDISC Conformance Rules (SDTMIG/ADaMIG)","https://library.cdisc.org/api/mdr/rules","CDISC","ADaM","ADaMIG 1.1","Record Data","ADaM-196","ADaM IG Conformance Rules","ADaM IG v1.1 §3.1","Required Variable value is null","Unlike SDTM, only some of ADaM Required variables (where Core attribute is Required) must not be null. PARAMCD is a Required variable that must have a non-missing value in all BDS dataset records.","ALL","BASIC DATA STRUCTURE","","Record","Partially Executable","Published","","TRUE"
"ADaM-198","AD0198","CDISC Library API","CDISC Conformance Rules (SDTMIG/ADaMIG)","https://library.cdisc.org/api/mdr/rules","CDISC","ADaM","ADaMIG 1.1","Record Data","ADaM-198","ADaM IG Conformance Rules","ADaM IG v1.1 §3.3.3","Neither AVAL nor AVALC is populated for this BDS record","BDS datasets must contain at least one analysis value variable (AVAL for numeric or AVALC for character). If both AVAL and AVALC are null for a record, this may indicate missing analysis values.","ALL","BDS","","Record","Fully Executable","Published","","TRUE"
"ADaM-201","AD0201","CDISC Library API","CDISC Conformance Rules (SDTMIG/ADaMIG)","https://library.cdisc.org/api/mdr/rules","CDISC","ADaM","ADaMIG 1.1","Record Data","ADaM-201","ADaM IG Conformance Rules","ADaM IG v1.1 §3.3","TRTAGyN (numeric pooled actual treatment) is populated but TRTAGy (character) is missing","When TRTAG1N (Actual Pooled Treatment 1 Numeric) is present, TRTAG1 (Actual Pooled Treatment 1) must also be present.","ALL","BDS","","Record","Partially Executable","Published","","TRUE"
"ADaM-204","AD0204","CDISC Library API","CDISC Conformance Rules (SDTMIG/ADaMIG)","https://library.cdisc.org/api/mdr/rules","CDISC","ADaM","ADaMIG 1.1","Record Data","ADaM-204","ADaM IG Conformance Rules","ADaM IG v1.1 §3.1","For the same USUBJID, the ADSL.AGE != DM.AGE","The same subject in ADSL and DM must have the same value for Age (AGE). There must be traceability between ADaM and SDTM. This rule checks AGE is populated in ADSL (cross-dataset consistency requires both ADSL and DM).","ADSL","SUBJECT LEVEL","","Record","Partially Executable","Published","","TRUE"
"ADaM-205","AD0205","CDISC Library API","CDISC Conformance Rules (SDTMIG/ADaMIG)","https://library.cdisc.org/api/mdr/rules","CDISC","ADaM","ADaMIG 1.1","Record Data","ADaM-205","ADaM IG Conformance Rules","ADaM IG v1.1 §3.1","For the same USUBJID, the ADSL.AGEU != DM.AGEU","The same subject in ADSL and DM must have the same value for Age Unit (AGEU). There must be traceability between ADaM and SDTM.","ADSL","SUBJECT LEVEL","","Record","Partially Executable","Published","","TRUE"
"ADaM-206","AD0206","CDISC Library API","CDISC Conformance Rules (SDTMIG/ADaMIG)","https://library.cdisc.org/api/mdr/rules","CDISC","ADaM","ADaMIG 1.1","Record Data","ADaM-206","ADaM IG Conformance Rules","ADaM IG v1.1 §3.1","For the same USUBJID, the ADSL.SEX != DM.SEX","The same subject in ADSL and DM must have the same value for Sex (SEX). There must be traceability between ADaM and SDTM. SEX must be present in ADSL for every subject.","ADSL","SUBJECT LEVEL","","Record","Partially Executable","Published","","TRUE"
"ADaM-207","AD0207","CDISC Library API","CDISC Conformance Rules (SDTMIG/ADaMIG)","https://library.cdisc.org/api/mdr/rules","CDISC","ADaM","ADaMIG 1.1","Record Data","ADaM-207","ADaM IG Conformance Rules","ADaM IG v1.1 §3.1","For the same USUBJID, the ADSL.RACE != DM.RACE","The same subject in ADSL and DM must have the same value for Race (RACE). There must be traceability between ADaM and SDTM. RACE must be present in ADSL for every subject.","ADSL","SUBJECT LEVEL","","Record","Partially Executable","Published","","TRUE"
"ADaM-208","AD0208","CDISC Library API","CDISC Conformance Rules (SDTMIG/ADaMIG)","https://library.cdisc.org/api/mdr/rules","CDISC","ADaM","ADaMIG 1.1","Record Data","ADaM-208","ADaM IG Conformance Rules","ADaM IG v1.1 §3.1","For the same USUBJID, the ADSL.SUBJID != DM.SUBJID","The same subject in ADSL and DM must have the same value for Subject ID (SUBJID). There must be traceability between ADaM and SDTM. SUBJID must be present in ADSL for every subject.","ADSL","SUBJECT LEVEL","","Record","Partially Executable","Published","","TRUE"
"ADaM-209","AD0209","CDISC Library API","CDISC Conformance Rules (SDTMIG/ADaMIG)","https://library.cdisc.org/api/mdr/rules","CDISC","ADaM","ADaMIG 1.1","Record Data","ADaM-209","ADaM IG Conformance Rules","ADaM IG v1.1 §3.1","For the same USUBJID, the ADSL.SITEID != DM.SITEID","The same subject in ADSL and DM must have the same value for Site ID (SITEID). There must be traceability between ADaM and SDTM.","ADSL","SUBJECT LEVEL","","Record","Partially Executable","Published","","TRUE"
"ADaM-210","AD0210","CDISC Library API","CDISC Conformance Rules (SDTMIG/ADaMIG)","https://library.cdisc.org/api/mdr/rules","CDISC","ADaM","ADaMIG 1.1","Record Data","ADaM-210","ADaM IG Conformance Rules","ADaM IG v1.1 §3.1","For the same USUBJID, the ADSL.ARM != DM.ARM","The same subject in ADSL and DM must have the same value for Arm (ARM). There must be traceability between ADaM and SDTM.","ADSL","SUBJECT LEVEL","","Record","Partially Executable","Published","","TRUE"
"ADaM-211","AD0211","CDISC Library API","CDISC Conformance Rules (SDTMIG/ADaMIG)","https://library.cdisc.org/api/mdr/rules","CDISC","ADaM","ADaMIG 1.1","Record Data","ADaM-211","ADaM IG Conformance Rules","ADaM IG v1.1 §3.3.5","ABLFN has a value other than 1 or null","ABLFN (Analysis Baseline Flag Numeric) must have a value of 1 or null. A value of 0 is not valid; null indicates the record is not the analysis baseline.","ALL","BDS","","Record","Fully Executable","Published","","TRUE"
"ADaM-212","AD0212","CDISC Library API","CDISC Conformance Rules (SDTMIG/ADaMIG)","https://library.cdisc.org/api/mdr/rules","CDISC","ADaM","ADaMIG 1.1","Record Data","ADaM-212","ADaM IG Conformance Rules","ADaM IG v1.1 §4.4","ANLzzFN value is not 1 or null","ANLzzFN (Analyzed Record Flag zz Numeric) must be 1 or null. Uses ANL01FN as a representative variable.","ALL","BASIC DATA STRUCTURE","","Record","Partially Executable","Published","","TRUE"
"ADaM-223","AD0223","CDISC Library API","CDISC Conformance Rules (SDTMIG/ADaMIG)","https://library.cdisc.org/api/mdr/rules","CDISC","ADaM","ADaMIG 1.1","Record Data","ADaM-223","ADaM IG Conformance Rules","ADaM IG v1.1 §4.4","CHG != AVAL - BASE","When all 3 variables are populated, Change from Baseline (CHG) must equal Analysis Value (AVAL) minus Baseline Value (BASE): CHG = AVAL - BASE.","ALL","BASIC DATA STRUCTURE","","Record","Fully Executable","Published","","TRUE"
"ADaM-225","AD0225","CDISC Library API","CDISC Conformance Rules (SDTMIG/ADaMIG)","https://library.cdisc.org/api/mdr/rules","CDISC","ADaM","ADaMIG 1.1","Record Data","ADaM-225","ADaM IG Conformance Rules","ADaM IG v1.1 §3.3.5","PCHG does not equal 100 * (AVAL - BASE) / BASE (percent change from baseline error)","PCHG = 100 * (AVAL - BASE) / BASE when BASE != 0.","ALL","BDS","","Record","Fully Executable","Published","","TRUE"
"ADaM-225A","","CDISC Library API","CDISC Conformance Rules (SDTMIG/ADaMIG)","https://library.cdisc.org/api/mdr/rules","CDISC","ADaM","ADaMIG 1.1","Record Data","ADaM-225A","ADaM IG Conformance Rules","ADaM IG v1.1 §3.3.5","PCHG is populated when BASE = 0 (percent change undefined when baseline is zero)","When BASE = 0, PCHG cannot be calculated (division by zero). PCHG must be null.","ALL","BDS","","Record","Fully Executable","Published","","TRUE"
"ADaM-239","AD0239","CDISC Library API","CDISC Conformance Rules (SDTMIG/ADaMIG)","https://library.cdisc.org/api/mdr/rules","CDISC","ADaM","ADaMIG 1.1","Record Data","ADaM-239","ADaM IG Conformance Rules","ADaM IG v1.1 §3.3","TRTA and TRTPG1 are both populated but inconsistent (possible treatment deviation)","When TRTA (Actual Treatment) and TRTPG1 (Planned Pooled Treatment 1) are both populated, they should be consistent unless dose escalation occurred.","ALL","BDS","","Record","Partially Executable","Published","","TRUE"
"ADaM-239A","","CDISC Library API","CDISC Conformance Rules (SDTMIG/ADaMIG)","https://library.cdisc.org/api/mdr/rules","CDISC","ADaM","ADaMIG 1.1","Record Data","ADaM-239A","ADaM IG Conformance Rules","ADaM IG v1.1 §3.2","TRT01A and TR01P1 are both populated but inconsistent","When TRT01A (Actual Treatment Period 01) and TR01P1 (Planned Pooled Treatment Period 01) are both populated, they should be consistent.","ADSL","ALL","","Record","Partially Executable","Published","","TRUE"
"ADaM-245","AD0245","CDISC Library API","CDISC Conformance Rules (SDTMIG/ADaMIG)","https://library.cdisc.org/api/mdr/rules","CDISC","ADaM","ADaMIG 1.1","Record Data","ADaM-245","ADaM IG Conformance Rules","ADaM IG v1.1 §5.2","CNSR is present, but STARTDT is not present","When Censor (CNSR) variable is present, the Time-to-Event Origin Date for Subject (STARTDT) must also be present.","ADTTE","BASIC DATA STRUCTURE","","Record","Fully Executable","Published","","TRUE"
"ADaM-246","AD0246","CDISC Library API","CDISC Conformance Rules (SDTMIG/ADaMIG)","https://library.cdisc.org/api/mdr/rules","CDISC","ADaM","ADaMIG 1.1","Record Data","ADaM-246","ADaM IG Conformance Rules","ADaM IG v1.1 §5.2","CNSR is present, but both ADT and ADTM are not present","When Censor (CNSR) variable is present, the Time-to-Event Origin Date (ADT) or Datetime (ADTM) must also be present.","ADTTE","BASIC DATA STRUCTURE","","Record","Fully Executable","Published","","TRUE"
"ADaM-247","AD0247","CDISC Library API","CDISC Conformance Rules (SDTMIG/ADaMIG)","https://library.cdisc.org/api/mdr/rules","CDISC","ADaM","ADaMIG 1.1","Record Data","ADaM-247","ADaM IG Conformance Rules","ADaM IG v1.1 §5.2","CNSR=1 but EVNTDESC is not populated","When an event is censored (CNSR=1), the Event or Censoring Description (EVNTDESC) must be populated.","ADTTE","BASIC DATA STRUCTURE","","Record","Fully Executable","Published","","TRUE"
"ADaM-250","AD0250","CDISC Library API","CDISC Conformance Rules (SDTMIG/ADaMIG)","https://library.cdisc.org/api/mdr/rules","CDISC","ADaM","ADaMIG 1.1","Record Data","ADaM-250","ADaM IG Conformance Rules","ADaM IG v1.1 §5.2","EVNTDESC and/or CNSDTDSC is present, but CNSR is not present","In Time to Event studies, Event or Censoring Description (EVNTDESC) variable must only be present if Censor (CNSR) variable is also present.","ADTTE","BASIC DATA STRUCTURE","","Record","Fully Executable","Published","","TRUE"
"ADaM-251","AD0251","CDISC Library API","CDISC Conformance Rules (SDTMIG/ADaMIG)","https://library.cdisc.org/api/mdr/rules","CDISC","ADaM","ADaMIG 1.1","Record Data","ADaM-251","ADaM IG Conformance Rules","ADaM IG v1.1 §5.2","CNSDTDSC is present, but CNSR is not present","In Time to Event studies, Censor Date Description (CNSDTDSC) variable must only be present if Censor (CNSR) variable is also present.","ADTTE","BASIC DATA STRUCTURE","","Record","Fully Executable","Published","","TRUE"
"ADaM-263","AD0263","CDISC Library API","CDISC Conformance Rules (SDTMIG/ADaMIG)","https://library.cdisc.org/api/mdr/rules","CDISC","ADaM","ADaMIG 1.1","Record Data","ADaM-263","ADaM IG Conformance Rules","ADaM IG v1.1 §3.2","*DTF is populated but *DT is not populated","If a Date variable is indicated to be imputed by population of an Imputation Flag Variable (*DTF), the corresponding date variable (*DT) must be populated.","ALL","BASIC DATA STRUCTURE, OCCURRENCE DATA STRUCTURE","","Record","Partially Executable","Published","","TRUE"
"ADaM-264","AD0264","CDISC Library API","CDISC Conformance Rules (SDTMIG/ADaMIG)","https://library.cdisc.org/api/mdr/rules","CDISC","ADaM","ADaMIG 1.1","Record Data","ADaM-264","ADaM IG Conformance Rules","ADaM IG v1.1 §3.2","*TMF is populated but *TM is not populated","If a Time variable is indicated to be imputed by population of an Imputation Flag Variable (*TMF), the corresponding time variable (*TM) must be populated.","ALL","BASIC DATA STRUCTURE, OCCURRENCE DATA STRUCTURE","","Record","Partially Executable","Published","","TRUE"
"ADaM-267","AD0267","CDISC Library API","CDISC Conformance Rules (SDTMIG/ADaMIG)","https://library.cdisc.org/api/mdr/rules","CDISC","ADaM","ADaMIG 1.1","Record Data","ADaM-267","ADaM IG Conformance Rules","ADaM IG v1.1 §4.3","ADURU is populated but ADURN is not populated","If any of Analysis Duration Units (ADURU) or Analysis Duration (N) (ADURN) is populated, then both must be populated together.","ALL","BASIC DATA STRUCTURE, OCCURRENCE DATA STRUCTURE","","Record","Fully Executable","Published","","TRUE"
"ADaM-269","AD0269","CDISC Library API","CDISC Conformance Rules (SDTMIG/ADaMIG)","https://library.cdisc.org/api/mdr/rules","CDISC","ADaM","ADaMIG 1.1","Record Data","ADaM-269","ADaM IG Conformance Rules","ADaM IG v1.1 §4.3","Treatment flag variable (e.g. TRTEMFL) has a value other than Y or null","Treatment flag variables (TRTEMFL, ONTRTFL, PREFL, FUPFL, LVOTFL) must have a value of Y or null. Uses TRTEMFL (Treatment Emergent Analysis Flag) as representative. N is not a valid value for treatment flags.","ALL","BDS, OCCDS","","Record","Partially Executable","Published","","TRUE"
"ADaM-272","AD0272","CDISC Library API","CDISC Conformance Rules (SDTMIG/ADaMIG)","https://library.cdisc.org/api/mdr/rules","CDISC","ADaM","ADaMIG 1.1","Record Data","ADaM-272","ADaM IG Conformance Rules","ADaM IG v1.1 §6.2","AOCC*FL value is not Y or null","1st Occurrence Flag (AOCC*FL) variable values must be Y or null. Uses AOCCIFL as a representative variable.","ALL","OCCURRENCE DATA STRUCTURE","","Record","Partially Executable","Published","","TRUE"
"ADaM-273","AD0273","CDISC Library API","CDISC Conformance Rules (SDTMIG/ADaMIG)","https://library.cdisc.org/api/mdr/rules","CDISC","ADaM","ADaMIG 1.1","Record Data","ADaM-273","ADaM IG Conformance Rules","ADaM IG v1.1 §6.2","AOCCzzFL value is not Y or null","For additional Flag (AOCCzzFL) variables representing the 1st Occurrence, values must be Y or null.","ALL","OCCURRENCE DATA STRUCTURE","","Record","Partially Executable","Published","","TRUE"
"ADaM-274","AD0274","CDISC Library API","CDISC Conformance Rules (SDTMIG/ADaMIG)","https://library.cdisc.org/api/mdr/rules","CDISC","ADaM","ADaMIG 1.1","Record Data","ADaM-274","ADaM IG Conformance Rules","ADaM IG v1.1 §6.3","DOSAEONU is present but DOSAEONA is not present","If Study Drug Dose at AE Onset Units (DOSAEONU) or Study Drug Dose at AE Onset Amount (DOSAEONA) is present, both must be present together.","ADAE","OCCURRENCE DATA STRUCTURE","","Record","Fully Executable","Published","","TRUE"
"ADaM-275","AD0275","CDISC Library API","CDISC Conformance Rules (SDTMIG/ADaMIG)","https://library.cdisc.org/api/mdr/rules","CDISC","ADaM","ADaMIG 1.1","Record Data","ADaM-275","ADaM IG Conformance Rules","ADaM IG v1.1 §6.3","DOSECUMU is present but DOSECUM is not present","If Cumulative Study Drug Dose Unit (DOSECUMU) or Cumulative Study Drug Dose (DOSECUM) is present, both must be present together.","ADAE","OCCURRENCE DATA STRUCTURE","","Record","Fully Executable","Published","","TRUE"
"ADaM-279","AD0279","CDISC Library API","CDISC Conformance Rules (SDTMIG/ADaMIG)","https://library.cdisc.org/api/mdr/rules","CDISC","ADaM","ADaMIG 1.1","Record Data","ADaM-279","ADaM IG Conformance Rules","ADaM IG v1.1 §6.2","AESEVN is populated but ASEVN is not populated","Severity/Intensity (N) (AESEVN) and Analysis Severity/Intensity (N) (ASEVN) must be consistent when both are present. When AESEVN is populated, ASEVN must also be populated.","ADAE","OCCURRENCE DATA STRUCTURE","","Record","Partially Executable","Published","","TRUE"
"ADaM-282A","","CDISC Library API","CDISC Conformance Rules (SDTMIG/ADaMIG)","https://library.cdisc.org/api/mdr/rules","CDISC","ADaM","ADaMIG 1.1","Record Data","ADaM-282A","ADaM IG Conformance Rules","ADaM IG v1.1 §6.2","ASEVN value is not 1, 2, 3, or null","For Analysis Severity/Intensity (N) (ASEVN) variables, values must be 1 (MILD), 2 (MODERATE), 3 (SEVERE), or null.","ADAE","OCCURRENCE DATA STRUCTURE","","Record","Fully Executable","Published","","TRUE"
"ADaM-299","AD0299","CDISC Library API","CDISC Conformance Rules (SDTMIG/ADaMIG)","https://library.cdisc.org/api/mdr/rules","CDISC","ADaM","ADaMIG 1.1","Record Data","ADaM-299","ADaM IG Conformance Rules","ADaM IG v1.1 §4.6","SMQ variable group is incomplete: SMQ01NAM is present but SMQ01CD is missing","SMQ (Standardized MedDRA Query) variable groups (SMQzzNAM, SMQzzCD, SMQzzSC) must use a two-digit ordinal suffix 01-99. When SMQ01NAM is present, SMQ01CD must also be present. Uses SMQ01NAM/SMQ01CD as representative pair.","ALL","OCCDS","","Record","Partially Executable","Published","","TRUE"
"ADaM-303","AD0303","CDISC Library API","CDISC Conformance Rules (SDTMIG/ADaMIG)","https://library.cdisc.org/api/mdr/rules","CDISC","ADaM","ADaMIG 1.1","Record Data","ADaM-303","ADaM IG Conformance Rules","ADaM IG v1.1 §4.6","CQzzNAM variable has an invalid value (special characters not expected)","CQ (Customized MedDRA Query) name variables (CQzzNAM) must use a two-digit ordinal suffix 01-99. Uses CQ01NAM as representative. Values should contain only standard characters.","ALL","OCCDS","","Record","Partially Executable","Published","","TRUE"
"ADaM-304","AD0304","CDISC Library API","CDISC Conformance Rules (SDTMIG/ADaMIG)","https://library.cdisc.org/api/mdr/rules","CDISC","ADaM","ADaMIG 1.1","Record Data","ADaM-304","ADaM IG Conformance Rules","ADaM IG v1.1 §4.6","Incomplete SMQ variable group: when any of SMQ01NAM/SMQ01CD/SMQ01SC is populated, all must be populated","If any SMQ variable in a group (SMQzzNAM, SMQzzCD, SMQzzSC) is populated, all variables in that group must be populated. Uses SMQ01NAM/SMQ01CD/SMQ01SC as representative group.","ALL","OCCDS","","Record","Partially Executable","Published","","TRUE"
"ADaM-312","AD0312","CDISC Library API","CDISC Conformance Rules (SDTMIG/ADaMIG)","https://library.cdisc.org/api/mdr/rules","CDISC","ADaM","ADaMIG 1.1","Record Data","ADaM-312","ADaM IG Conformance Rules","ADaM IG v1.1 §6.2","SMQzzSC value is not BROAD, NARROW, or null","Standardized MedDRA Query Scope (SMQzzSC) variable value must be BROAD, NARROW, or null. Uses SMQ01SC as a representative variable.","ADAE","OCCURRENCE DATA STRUCTURE","","Record","Partially Executable","Published","","TRUE"
"ADaM-313","AD0313","CDISC Library API","CDISC Conformance Rules (SDTMIG/ADaMIG)","https://library.cdisc.org/api/mdr/rules","CDISC","ADaM","ADaMIG 1.1","Record Data","ADaM-313","ADaM IG Conformance Rules","ADaM IG v1.1 §6.2","SMQzzSCN value is not 1, 2, or null","Standardized MedDRA Query Scope Numeric (SMQzzSCN) variable value must be 1 (BROAD), 2 (NARROW), or null.","ADAE","OCCURRENCE DATA STRUCTURE","","Record","Partially Executable","Published","","TRUE"
"ADaM-314","AD0314","CDISC Library API","CDISC Conformance Rules (SDTMIG/ADaMIG)","https://library.cdisc.org/api/mdr/rules","CDISC","ADaM","ADaMIG 1.1","Record Data","ADaM-314","ADaM IG Conformance Rules","ADaM IG v1.1 §6.2","DECOD is present but DECODORG is not present","Original or prior MedDRA coding variables (DECDORGy, etc.) must be present when the corresponding current variable (DECOD, etc.) is present.","ADAE","OCCURRENCE DATA STRUCTURE","","Record","Partially Executable","Published","","TRUE"
"ADaM-320","AD0320","CDISC Library API","CDISC Conformance Rules (SDTMIG/ADaMIG)","https://library.cdisc.org/api/mdr/rules","CDISC","ADaM","ADaMIG 1.1","Record Data","ADaM-320","ADaM IG Conformance Rules","ADaM IG v1.1 §3.2","ADSL dataset label must be Subject-Level Analysis Dataset (metadata rule - verify in Define.xml)","The ADSL dataset label must be 'Subject-Level Analysis Dataset'. This is a metadata rule that requires checking the dataset label attribute in Define.xml or SAS dataset metadata. Record-level check verifies dataset is present and populated.","ADSL","ALL","","Dataset","Partially Executable","Published","","TRUE"
"ADaM-320B","","CDISC Library API","CDISC Conformance Rules (SDTMIG/ADaMIG)","https://library.cdisc.org/api/mdr/rules","CDISC","ADaM","ADaMIG 1.1","Record Data","ADaM-320B","ADaM IG Conformance Rules","ADaM IG v1.1 §3.4","ADDL dataset label must be Device-level Analysis Dataset (metadata rule - verify in Define.xml)","The ADDL dataset label must be 'Device-level Analysis Dataset'. This is a metadata rule that requires checking the dataset label attribute in Define.xml or SAS dataset metadata.","ADDL","ALL","","Dataset","Partially Executable","Published","","TRUE"
"ADaM-337","AD0337","CDISC Library API","CDISC Conformance Rules (SDTMIG/ADaMIG)","https://library.cdisc.org/api/mdr/rules","CDISC","ADaM","ADaMIG 1.1","Record Data","ADaM-337","ADaM IG Conformance Rules","ADaM IG v1.1 §4.4","MCRITyML value is not Y or null","If Multi-Response Criterion y Evaluation (MCRITyML) flag variable is present, values must be Y or null.","ALL","BASIC DATA STRUCTURE","","Record","Partially Executable","Published","","TRUE"
"ADaM-338","AD0338","CDISC Library API","CDISC Conformance Rules (SDTMIG/ADaMIG)","https://library.cdisc.org/api/mdr/rules","CDISC","ADaM","ADaMIG 1.1","Record Data","ADaM-338","ADaM IG Conformance Rules","ADaM IG v1.1 §4.4","MCRITy is present but MCRITyML is not present","If Analysis Multi-Response Criterion y (MCRITy) variable is present, MCRITyML must also be present.","ALL","BASIC DATA STRUCTURE","","Record","Partially Executable","Published","","TRUE"
"ADaM-339","AD0339","CDISC Library API","CDISC Conformance Rules (SDTMIG/ADaMIG)","https://library.cdisc.org/api/mdr/rules","CDISC","ADaM","ADaMIG 1.1","Record Data","ADaM-339","ADaM IG Conformance Rules","ADaM IG v1.1 §4.4","MCRITyML=Y but MCRITy is not present","When Multi-Response Criterion y Evaluation (MCRITyML) = Y, MCRITy must be present.","ALL","BASIC DATA STRUCTURE","","Record","Partially Executable","Published","","TRUE"
"ADaM-346","AD0346","CDISC Library API","CDISC Conformance Rules (SDTMIG/ADaMIG)","https://library.cdisc.org/api/mdr/rules","CDISC","ADaM","ADaMIG 1.1","Record Data","ADaM-346","ADaM IG Conformance Rules","ADaM IG v1.1 §3.3.6","R2A1LO is present but A1LO is missing","When R2A1LO is present, A1LO must also be present.","ALL","BDS","","Record","Fully Executable","Published","","TRUE"
"ADaM-349","AD0349","CDISC Library API","CDISC Conformance Rules (SDTMIG/ADaMIG)","https://library.cdisc.org/api/mdr/rules","CDISC","ADaM","ADaMIG 1.1","Record Data","ADaM-349","ADaM IG Conformance Rules","ADaM IG v1.1 §3.3.6","R2A1HI is present but A1HI is missing","When R2A1HI is present, A1HI must also be present.","ALL","BDS","","Record","Fully Executable","Published","","TRUE"
"ADaM-352","AD0352","CDISC Library API","CDISC Conformance Rules (SDTMIG/ADaMIG)","https://library.cdisc.org/api/mdr/rules","CDISC","ADaM","ADaMIG 1.1","Record Data","ADaM-352","ADaM IG Conformance Rules","ADaM IG v1.1 §4.4","AyIND value is not L, N, H, or null","Analysis Range y Indicator (AyIND) variable values must be L (low), N (normal), H (high), or null. Uses A1IND as a representative variable.","ALL","BASIC DATA STRUCTURE","","Record","Partially Executable","Published","","TRUE"
"ADaM-353","AD0353","CDISC Library API","CDISC Conformance Rules (SDTMIG/ADaMIG)","https://library.cdisc.org/api/mdr/rules","CDISC","ADaM","ADaMIG 1.1","Record Data","ADaM-353","ADaM IG Conformance Rules","ADaM IG v1.1 §3.3.6","BNRIND is inconsistent for the same subject+parameter","BNRIND must be consistent within USUBJID+PARAMCD.","ALL","BDS","","Record","Fully Executable","Published","","TRUE"
"ADaM-364","AD0364","CDISC Library API","CDISC Conformance Rules (SDTMIG/ADaMIG)","https://library.cdisc.org/api/mdr/rules","CDISC","ADaM","ADaMIG 1.1","Record Data","ADaM-364","ADaM IG Conformance Rules","ADaM IG v1.1 §3.2","DOSE or DOSEA is populated but DOSEU (dose units) is missing","When DOSE or DOSEA is populated, DOSEU (Dose Units) must also be populated to provide context for the dose value.","ADSL","ALL","","Record","Fully Executable","Published","","TRUE"
"ADaM-366A","","CDISC Library API","CDISC Conformance Rules (SDTMIG/ADaMIG)","https://library.cdisc.org/api/mdr/rules","CDISC","ADaM","ADaMIG 1.1","Record Data","ADaM-366A","ADaM IG Conformance Rules","ADaM IG v1.1 §3.3","Missing value for RANDDT when RANDFL is Y","Date of Randomization (RANDDT) variable value should be populated for subjects with RANDFL = Y.","ADSL","SUBJECT LEVEL","","Record","Fully Executable","Published","","TRUE"
"ADaM-366B","","CDISC Library API","CDISC Conformance Rules (SDTMIG/ADaMIG)","https://library.cdisc.org/api/mdr/rules","CDISC","ADaM","ADaMIG 1.1","Record Data","ADaM-366B","ADaM IG Conformance Rules","ADaM IG v1.1 §3.2","RANDDT is populated but RANDFL is not Y","When RANDDT (Date of Randomization) is populated, RANDFL (Randomized Population Flag) must be Y. A subject with a randomization date must be flagged as randomized.","ADSL","ALL","","Record","Fully Executable","Published","","TRUE"
"ADaM-376","AD0376","CDISC Library API","CDISC Conformance Rules (SDTMIG/ADaMIG)","https://library.cdisc.org/api/mdr/rules","CDISC","ADaM","ADaMIG 1.1","Record Data","ADaM-376","ADaM IG Conformance Rules","ADaM IG v1.1 §3.2","TRT01P is populated but corresponding numeric variable TRT01PN is missing","When a character variable (primary) is populated, its corresponding numeric secondary variable must also be populated. Uses TRT01P/TRT01PN as representative pair. Full coverage requires checking all char/num variable pairs.","ADSL","ALL","","Record","Partially Executable","Published","","TRUE"
"ADaM-401","AD0401","CDISC Library API","CDISC Conformance Rules (SDTMIG/ADaMIG)","https://library.cdisc.org/api/mdr/rules","CDISC","ADaM","ADaMIG 1.1","Record Data","ADaM-401","ADaM IG Conformance Rules","ADaM IG v1.1 §4.4","ATOXDSCL is present but neither ATOXGRLN nor ATOXGRL is present","If Analysis Toxicity Description Low (ATOXDSCL) variable is present, ATOXGRLN or ATOXGRL must also be present.","ALL","BASIC DATA STRUCTURE","","Record","Fully Executable","Published","","TRUE"
"ADaM-402","AD0402","CDISC Library API","CDISC Conformance Rules (SDTMIG/ADaMIG)","https://library.cdisc.org/api/mdr/rules","CDISC","ADaM","ADaMIG 1.1","Record Data","ADaM-402","ADaM IG Conformance Rules","ADaM IG v1.1 §4.4","ATOXDSCH is present but neither ATOXGRHN nor ATOXGRH is present","If Analysis Toxicity Description High (ATOXDSCH) variable is present, ATOXGRHN or ATOXGRH must also be present.","ALL","BASIC DATA STRUCTURE","","Record","Fully Executable","Published","","TRUE"
"ADaM-450","AD0450","CDISC Library API","CDISC Conformance Rules (SDTMIG/ADaMIG)","https://library.cdisc.org/api/mdr/rules","CDISC","ADaM","ADaMIG 1.1","Record Data","ADaM-450","ADaM IG Conformance Rules","ADaM IG v1.1 §4.4","MCRITyML is present but MCRITy is not present","If Multi-Response Criterion y Evaluation (MCRITyML) is present, MCRITy must also be present.","ALL","BASIC DATA STRUCTURE","","Record","Partially Executable","Published","","TRUE"
"ADaM-451","AD0451","CDISC Library API","CDISC Conformance Rules (SDTMIG/ADaMIG)","https://library.cdisc.org/api/mdr/rules","CDISC","ADaM","ADaMIG 1.1","Record Data","ADaM-451","ADaM IG Conformance Rules","ADaM IG v1.1 §4.4","MCRITyMN is present but MCRITy is not present","If Multi-Response Criterion y Eval (N) (MCRITyMN) is present, MCRITy must also be present.","ALL","BASIC DATA STRUCTURE","","Record","Partially Executable","Published","","TRUE"
"ADaM-482","AD0482","CDISC Library API","CDISC Conformance Rules (SDTMIG/ADaMIG)","https://library.cdisc.org/api/mdr/rules","CDISC","ADaM","ADaMIG 1.1","Record Data","ADaM-482","ADaM IG Conformance Rules","ADaM IG v1.1 §3.3.2","AVISITN is populated but corresponding character variable AVISIT is missing","When a numeric secondary variable is populated, its corresponding character primary variable must also be populated. Uses AVISITN/AVISIT as representative pair in BDS.","ALL","BDS","","Record","Partially Executable","Published","","TRUE"
"ADaM-483","AD0483","CDISC Library API","CDISC Conformance Rules (SDTMIG/ADaMIG)","https://library.cdisc.org/api/mdr/rules","CDISC","ADaM","ADaMIG 1.1","Record Data","ADaM-483","ADaM IG Conformance Rules","ADaM IG v1.1 §3.3.2","AVISIT is populated but corresponding numeric variable AVISITN is missing","When a character primary variable is populated, its corresponding numeric secondary variable must also be populated. Uses AVISIT/AVISITN as representative pair in BDS.","ALL","BDS","","Record","Partially Executable","Published","","TRUE"
"ADaM-484","AD0484","CDISC Library API","CDISC Conformance Rules (SDTMIG/ADaMIG)","https://library.cdisc.org/api/mdr/rules","CDISC","ADaM","ADaMIG 1.1","Record Data","ADaM-484","ADaM IG Conformance Rules","ADaM IG v1.1 §3.3.1","PARAMN is populated but PARAM is missing","When PARAMN (numeric parameter value) is populated, PARAM (character parameter name) must also be populated. Uses PARAM/PARAMN as representative char/num pair.","ALL","BDS","","Record","Fully Executable","Published","","TRUE"
"ADaM-485","AD0485","CDISC Library API","CDISC Conformance Rules (SDTMIG/ADaMIG)","https://library.cdisc.org/api/mdr/rules","CDISC","ADaM","ADaMIG 1.1","Record Data","ADaM-485","ADaM IG Conformance Rules","ADaM IG v1.1 §3.3.1","PARAM is populated but PARAMN is missing","When PARAM (character parameter name) is populated, PARAMN (numeric parameter value) must also be populated. Uses PARAM/PARAMN as representative char/num pair in BDS.","ALL","BDS","","Record","Partially Executable","Published","","TRUE"
"ADaM-492","AD0492","CDISC Library API","CDISC Conformance Rules (SDTMIG/ADaMIG)","https://library.cdisc.org/api/mdr/rules","CDISC","ADaM","ADaMIG 1.1","Record Data","ADaM-492","ADaM IG Conformance Rules","ADaM IG v1.1 §4.4","SHIFT1 is present but BTOXGR is not present","If Shift y (SHIFTy) variable is present, the variable pair it is describing (baseline toxicity grade BTOXGR and analysis toxicity grade ATOXGR) must also be present.","ALL","BASIC DATA STRUCTURE","","Record","Partially Executable","Published","","TRUE"
"ADaM-499","AD0499","CDISC Library API","CDISC Conformance Rules (SDTMIG/ADaMIG)","https://library.cdisc.org/api/mdr/rules","CDISC","ADaM","ADaMIG 1.1","Record Data","ADaM-499","ADaM IG Conformance Rules","ADaM IG v1.1 §4.2","ASPER is present but APERIOD is not present","If Subperiod within Period (ASPER) variable is used in a dataset, Period (APERIOD) must also be present.","ALL","BASIC DATA STRUCTURE, OCCURRENCE DATA STRUCTURE","","Record","Fully Executable","Published","","TRUE"
"ADaM-543","AD0543","CDISC Library API","CDISC Conformance Rules (SDTMIG/ADaMIG)","https://library.cdisc.org/api/mdr/rules","CDISC","ADaM","ADaMIG 1.1","Record Data","ADaM-543","ADaM IG Conformance Rules","ADaM IG v1.1 §3.3.3","AVALCA1N is populated but AVALCA1 is missing","When AVALCA1N is present, AVALCA1 must also be present.","ALL","BDS","","Record","Partially Executable","Published","","TRUE"
"ADaM-544","AD0544","CDISC Library API","CDISC Conformance Rules (SDTMIG/ADaMIG)","https://library.cdisc.org/api/mdr/rules","CDISC","ADaM","ADaMIG 1.1","Record Data","ADaM-544","ADaM IG Conformance Rules","ADaM IG v1.1 §3.3.5","BASECA1N is populated but BASECA1 is missing","When BASECA1N is present, BASECA1 must also be present.","ALL","BDS","","Record","Partially Executable","Published","","TRUE"
"ADaM-545","AD0545","CDISC Library API","CDISC Conformance Rules (SDTMIG/ADaMIG)","https://library.cdisc.org/api/mdr/rules","CDISC","ADaM","ADaMIG 1.1","Record Data","ADaM-545","ADaM IG Conformance Rules","ADaM IG v1.1 §4.4","CHGCATyN is present but CHGCATy is not present","If Change from Baseline Category y (N) (CHGCATyN) variable is used in a dataset, CHGCATy must also be present.","ALL","BASIC DATA STRUCTURE","","Record","Partially Executable","Published","","TRUE"
"ADaM-546","AD0546","CDISC Library API","CDISC Conformance Rules (SDTMIG/ADaMIG)","https://library.cdisc.org/api/mdr/rules","CDISC","ADaM","ADaMIG 1.1","Record Data","ADaM-546","ADaM IG Conformance Rules","ADaM IG v1.1 §4.4","PCHGCAyN is present but PCHGCAy is not present","If Percent Change from Baseline Category y (N) (PCHGCAyN) variable is used in a dataset, PCHGCAy must also be present.","ALL","BASIC DATA STRUCTURE","","Record","Partially Executable","Published","","TRUE"
"ADaM-552","AD0552","CDISC Library API","CDISC Conformance Rules (SDTMIG/ADaMIG)","https://library.cdisc.org/api/mdr/rules","CDISC","ADaM","ADaMIG 1.1","Record Data","ADaM-552","ADaM IG Conformance Rules","ADaM IG v1.1 §4.4","MCRITyMN is present but MCRITyML is not present","If Multi-Response Criterion y Eval (N) (MCRITyMN) variable is used in a dataset, MCRITyML must also be present.","ALL","BASIC DATA STRUCTURE","","Record","Partially Executable","Published","","TRUE"
"ADaM-565","AD0565","CDISC Library API","CDISC Conformance Rules (SDTMIG/ADaMIG)","https://library.cdisc.org/api/mdr/rules","CDISC","ADaM","ADaMIG 1.1","Record Data","ADaM-565","ADaM IG Conformance Rules","ADaM IG v1.1 §4.4","BCHGCAyN is present but BCHGCAy is not present","If Change to Baseline Category y (N) (BCHGCAyN) variable is used in a dataset, BCHGCAy must also be present.","ALL","BASIC DATA STRUCTURE","","Record","Partially Executable","Published","","TRUE"
"ADaM-566","AD0566","CDISC Library API","CDISC Conformance Rules (SDTMIG/ADaMIG)","https://library.cdisc.org/api/mdr/rules","CDISC","ADaM","ADaMIG 1.1","Record Data","ADaM-566","ADaM IG Conformance Rules","ADaM IG v1.1 §4.4","PBCHGCyN is present but PBCHGCy is not present","If Percent Change to Baseline Category y (N) (PBCHGCyN) variable is used in a dataset, PBCHGCy must also be present.","ALL","BASIC DATA STRUCTURE","","Record","Partially Executable","Published","","TRUE"
"ADaM-570","AD0570","CDISC Library API","CDISC Conformance Rules (SDTMIG/ADaMIG)","https://library.cdisc.org/api/mdr/rules","CDISC","ADaM","ADaMIG 1.1","Record Data","ADaM-570","ADaM IG Conformance Rules","ADaM IG v1.1 §3.3","Variable is present, but TRTxxP is not present","If any of the subject-level subperiod timing variables (PxxSwSDT, PxxSwEDT, etc.) are present, then the corresponding Planned Treatment for Period (TRTxxP) must also be present.","ADSL","SUBJECT LEVEL","","Record","Partially Executable","Published","","TRUE"
"ADaM-582","AD0582","CDISC Library API","CDISC Conformance Rules (SDTMIG/ADaMIG)","https://library.cdisc.org/api/mdr/rules","CDISC","ADaM","ADaMIG 1.1","Record Data","ADaM-582","ADaM IG Conformance Rules","ADaM IG v1.1 §4.4","BCHG != AVAL - BASE","When all 3 variables are populated, Change to Baseline (BCHG) must equal Analysis Value (AVAL) minus Baseline Value (BASE): BCHG = AVAL - BASE.","ALL","BASIC DATA STRUCTURE","","Record","Fully Executable","Published","","TRUE"
"ADaM-586","AD0586","CDISC Library API","CDISC Conformance Rules (SDTMIG/ADaMIG)","https://library.cdisc.org/api/mdr/rules","CDISC","ADaM","ADaMIG 1.1","Record Data","ADaM-586","ADaM IG Conformance Rules","ADaM IG v1.1 §4.4","PBCHG != 100 * (AVAL - BASE) / BASE","When all 3 variables are populated and BASE != 0, Percent Change to Baseline (PBCHG) must equal 100 * (AVAL - BASE) / BASE.","ALL","BASIC DATA STRUCTURE","","Record","Fully Executable","Published","","TRUE"
"ADaM-605","AD0605","CDISC Library API","CDISC Conformance Rules (SDTMIG/ADaMIG)","https://library.cdisc.org/api/mdr/rules","CDISC","ADaM","ADaMIG 1.1","Record Data","ADaM-605","ADaM IG Conformance Rules","ADaM IG v1.1 §4.5","APHASEN w has a PHSDT != ADSL.PHwSDT","When analysis Phase (APHASE) variable is defined, the Phase Start Date (PHSDT) variable must be present and consistent with ADSL.PHwSDT.","ALL","BASIC DATA STRUCTURE","","Record","Partially Executable","Published","","TRUE"
"ADaM-607","AD0607","CDISC Library API","CDISC Conformance Rules (SDTMIG/ADaMIG)","https://library.cdisc.org/api/mdr/rules","CDISC","ADaM","ADaMIG 1.1","Record Data","ADaM-607","ADaM IG Conformance Rules","ADaM IG v1.1 §4.5","APHASEN w has a PHSTM != ADSL.PHwSTM","When analysis Phase (APHASE) variable is defined, the analysis Phase Start Time (PHSTM) variable must be present and consistent with ADSL.PHwSTM.","ALL","BASIC DATA STRUCTURE","","Record","Partially Executable","Published","","TRUE"
"ADaM-609","AD0609","CDISC Library API","CDISC Conformance Rules (SDTMIG/ADaMIG)","https://library.cdisc.org/api/mdr/rules","CDISC","ADaM","ADaMIG 1.1","Record Data","ADaM-609","ADaM IG Conformance Rules","ADaM IG v1.1 §4.5","APHASEN w has a PHSDTM != ADSL.PHwSDTM","When analysis Phase (APHASE) variable is defined, the analysis Phase Start Datetime (PHSDTM) variable must be present and consistent with ADSL.PHwSDTM.","ALL","BASIC DATA STRUCTURE","","Record","Partially Executable","Published","","TRUE"
"ADaM-611","AD0611","CDISC Library API","CDISC Conformance Rules (SDTMIG/ADaMIG)","https://library.cdisc.org/api/mdr/rules","CDISC","ADaM","ADaMIG 1.1","Record Data","ADaM-611","ADaM IG Conformance Rules","ADaM IG v1.1 §4.5","APHASEN w has a PHEDT != ADSL.PHwEDT","When analysis Phase (APHASE) is defined, the Phase End Date (PHEDT) variable must be present and consistent with ADSL.PHwEDT.","ALL","BASIC DATA STRUCTURE","","Record","Partially Executable","Published","","TRUE"
"ADaM-613","AD0613","CDISC Library API","CDISC Conformance Rules (SDTMIG/ADaMIG)","https://library.cdisc.org/api/mdr/rules","CDISC","ADaM","ADaMIG 1.1","Record Data","ADaM-613","ADaM IG Conformance Rules","ADaM IG v1.1 §4.5","APHASEN w has a PHETM != ADSL.PHwETM","When analysis Phase (APHASE) variable is defined, the Phase End Time (PHETM) variable must be present and consistent with ADSL.PHwETM.","ALL","BASIC DATA STRUCTURE","","Record","Partially Executable","Published","","TRUE"
"ADaM-615","AD0615","CDISC Library API","CDISC Conformance Rules (SDTMIG/ADaMIG)","https://library.cdisc.org/api/mdr/rules","CDISC","ADaM","ADaMIG 1.1","Record Data","ADaM-615","ADaM IG Conformance Rules","ADaM IG v1.1 §4.5","APHASEN w has a PHEDTM != ADSL.PHwEDTM","When analysis Phase (APHASE) variable is defined, the Phase End Datetime (PHEDTM) variable must be present and consistent with ADSL.PHwEDTM.","ALL","BASIC DATA STRUCTURE","","Record","Partially Executable","Published","","TRUE"
"ADaM-647","AD0647","CDISC Library API","CDISC Conformance Rules (SDTMIG/ADaMIG)","https://library.cdisc.org/api/mdr/rules","CDISC","ADaM","ADaMIG 1.1","Record Data","ADaM-647","ADaM IG Conformance Rules","ADaM IG v1.1 §4.3","TREM01FL is Y but TRTEMFL is not Y (period flag implies overall flag must be Y)","When TREM01FL (Treatment Emergent Flag Period 01) is Y, TRTEMFL (overall Treatment Emergent Flag) must also be Y.","ADAE","OCCDS","","Record","Partially Executable","Published","","TRUE"
"ADaM-648","AD0648","CDISC Library API","CDISC Conformance Rules (SDTMIG/ADaMIG)","https://library.cdisc.org/api/mdr/rules","CDISC","ADaM","ADaMIG 1.1","Record Data","ADaM-648","ADaM IG Conformance Rules","ADaM IG v1.1 §4.3","TRTEM1FL is Y but TRTEMFL is not Y (window flag implies overall flag must be Y)","When TRTEM1FL (Treatment Emergent Flag Window 1) is Y, TRTEMFL must also be Y.","ADAE","OCCDS","","Record","Partially Executable","Published","","TRUE"
"ADaM-649","AD0649","CDISC Library API","CDISC Conformance Rules (SDTMIG/ADaMIG)","https://library.cdisc.org/api/mdr/rules","CDISC","ADaM","ADaMIG 1.1","Record Data","ADaM-649","ADaM IG Conformance Rules","ADaM IG v1.1 §4.3","ONTR01FL is Y but ONTRTFL is not Y","When ONTR01FL (On-Treatment Flag Period 01) is Y, ONTRTFL must also be Y.","ALL","BDS","","Record","Partially Executable","Published","","TRUE"
"ADaM-650","AD0650","CDISC Library API","CDISC Conformance Rules (SDTMIG/ADaMIG)","https://library.cdisc.org/api/mdr/rules","CDISC","ADaM","ADaMIG 1.1","Record Data","ADaM-650","ADaM IG Conformance Rules","ADaM IG v1.1 §4.3","ONTRT1FL is Y but ONTRTFL is not Y","When ONTRT1FL (On-Treatment Flag Window 1) is Y, ONTRTFL must also be Y.","ALL","BDS","","Record","Partially Executable","Published","","TRUE"
"ADaM-651","AD0651","CDISC Library API","CDISC Conformance Rules (SDTMIG/ADaMIG)","https://library.cdisc.org/api/mdr/rules","CDISC","ADaM","ADaMIG 1.1","Record Data","ADaM-651","ADaM IG Conformance Rules","ADaM IG v1.1 §4.3","ONTR01FL is present but ONTRTFL is missing","When ONTR01FL (period-specific on-treatment flag) is present, ONTRTFL (overall on-treatment flag) must also be present.","ALL","BDS","","Record","Partially Executable","Published","","TRUE"
"ADaM-652","AD0652","CDISC Library API","CDISC Conformance Rules (SDTMIG/ADaMIG)","https://library.cdisc.org/api/mdr/rules","CDISC","ADaM","ADaMIG 1.1","Record Data","ADaM-652","ADaM IG Conformance Rules","ADaM IG v1.1 §4.3","ONTRT1FL is present but ONTRTFL is missing","When ONTRT1FL (window-specific on-treatment flag) is present, ONTRTFL (overall on-treatment flag) must also be present.","ALL","BDS","","Record","Partially Executable","Published","","TRUE"
"ADaM-658","AD0658","CDISC Library API","CDISC Conformance Rules (SDTMIG/ADaMIG)","https://library.cdisc.org/api/mdr/rules","CDISC","ADaM","ADaMIG 1.1","Record Data","ADaM-658","ADaM IG Conformance Rules","ADaM IG v1.1 §7.2","NCAXFN value is not 1 or null","NCAXFN (PK NCA Exclusion Flag (N)) must be 1 or null. It is a numeric flag that must only have value 1.","ADNCA","BASIC DATA STRUCTURE","","Record","Fully Executable","Published","","TRUE"
"ADaM-659","AD0659","CDISC Library API","CDISC Conformance Rules (SDTMIG/ADaMIG)","https://library.cdisc.org/api/mdr/rules","CDISC","ADaM","ADaMIG 1.1","Record Data","ADaM-659","ADaM IG Conformance Rules","ADaM IG v1.1 §7.2","PKSUMXFN value is not 1 or null","PKSUMXFN (PK Summary Exclusion Flag (N)) must be 1 or null. It is a numeric flag that must only have value 1.","ADNCA","BASIC DATA STRUCTURE","","Record","Fully Executable","Published","","TRUE"
"ADaM-660","AD0660","CDISC Library API","CDISC Conformance Rules (SDTMIG/ADaMIG)","https://library.cdisc.org/api/mdr/rules","CDISC","ADaM","ADaMIG 1.1","Record Data","ADaM-660","ADaM IG Conformance Rules","ADaM IG v1.1 §7.2","METABFL value is not Y or null","METABFL (Metabolite Flag) must be Y or null.","ADNCA","BASIC DATA STRUCTURE","","Record","Fully Executable","Published","","TRUE"
"ADaM-661","AD0661","CDISC Library API","CDISC Conformance Rules (SDTMIG/ADaMIG)","https://library.cdisc.org/api/mdr/rules","CDISC","ADaM","ADaMIG 1.1","Record Data","ADaM-661","ADaM IG Conformance Rules","ADaM IG v1.1 §7.2","ADOSEDUR is present but neither NDOSEDUR nor DOSEDURU is present","When ADOSEDUR is present, NDOSEDUR and/or DOSEDURU must also be included in the dataset.","ADNCA","BASIC DATA STRUCTURE","","Record","Fully Executable","Published","","TRUE"
"ADaM-662","AD0662","CDISC Library API","CDISC Conformance Rules (SDTMIG/ADaMIG)","https://library.cdisc.org/api/mdr/rules","CDISC","ADaM","ADaMIG 1.1","Record Data","ADaM-662","ADaM IG Conformance Rules","ADaM IG v1.1 §7.2","TMPCTDF is populated and ARRLT or NRRLT are not populated","If TMPCTDF (Percent Diff. Nominal vs. Actual Time) is populated, both ARRLT (Actual Time Relative to Reference) and NRRLT (Nominal Time Relative to Reference) must also be populated.","ADNCA","BASIC DATA STRUCTURE","","Record","Fully Executable","Published","","TRUE"
"ADaM-666","AD0666","CDISC Library API","CDISC Conformance Rules (SDTMIG/ADaMIG)","https://library.cdisc.org/api/mdr/rules","CDISC","ADaM","ADaMIG 1.1","Record Data","ADaM-666","ADaM IG Conformance Rules","ADaM IG v1.1 §7.2","DOSPCTDF is populated and ARRDOS or NRDOS are not populated","If DOSPCTDF (Percent Diff. Nominal vs. Actual Dose) is populated, both ARRDOS (Actual Recorded Dose) and NRDOS (Nominal Recorded Dose) must also be populated.","ADNCA","BASIC DATA STRUCTURE","","Record","Fully Executable","Published","","TRUE"
"ADaM-667","AD0667","CDISC Library API","CDISC Conformance Rules (SDTMIG/ADaMIG)","https://library.cdisc.org/api/mdr/rules","CDISC","ADaM","ADaMIG 1.1","Record Data","ADaM-667","ADaM IG Conformance Rules","ADaM IG v1.1 §4.7","DOSPCTDF is populated but NOMLDOS is missing (required for dose difference calculation)","When DOSPCTDF is populated, NOMLDOS must also be present since the percentage difference requires both nominal and actual dose values.","ADNCA","ALL","","Record","Fully Executable","Published","","TRUE"
"CORE-000001","","CDISC Library API","CDISC Conformance Rules (SDTMIG/ADaMIG)","https://library.cdisc.org/api/mdr/rules","CDISC","SDTM","SDTMIG 3.2; SDTMIG 3.3","Record Data","CG0176; TIG0405","SDTM and SDTMIG Conformance Rules; TIG Conformance Rules","SDTM v3.4 §6.3.4; IG v3.2 §6.3; IG v3.3 §6.3.4; TIG 1.0 §2.8.10.13","IEORRES is not equal to 'N' when IECAT equals 'INCLUSION'.","Raise an error when IECAT is equal to 'INCLUSION' and IEORRES is not equal to 'N'.","IE","FINDINGS","","Record","Fully Executable","Published","","TRUE"
"CORE-000002","","CDISC Library API","CDISC Conformance Rules (SDTMIG/ADaMIG)","https://library.cdisc.org/api/mdr/rules","CDISC","SDTM","SDTMIG 3.2; SDTMIG 3.3","Record Data","CG0208","SDTM and SDTMIG Conformance Rules","SDTM v1.4 §5.3; IG v3.2 §5 SE; IG v3.3 §5.3","SESTDTC is required.","Raise an error when SESTDTC is null.","SE","SPECIAL PURPOSE","","Record","Fully Executable","Published","","TRUE"
"CORE-000003","","CDISC Library API","CDISC Conformance Rules (SDTMIG/ADaMIG)","https://library.cdisc.org/api/mdr/rules","CDISC","SDTM","SDTMIG 3.2; SDTMIG 3.3","Record Data","CG0299","SDTM and SDTMIG Conformance Rules","SDTM v3.4 §6.3.12.2; IG v3.2 §6.3; IG v3.3 §6.3.16.2","TRLOC is present when TRLOC is not included in the TR domain.","Raise an error when TRLOC is present.","TR","FINDINGS","","Dataset","Fully Executable","Published","","TRUE"
"CORE-000004","","CDISC Library API","CDISC Conformance Rules (SDTMIG/ADaMIG)","https://library.cdisc.org/api/mdr/rules","CDISC","SDTM","SDTMIG 3.2; SDTMIG 3.3","Record Data","CG0101; TIG0366","SDTM and SDTMIG Conformance Rules; TIG Conformance Rules","IG v3.4 §6.1.3.2; IG v3.2 §IG v3.2[6.1]; IG v3.3 §IG v3.3[6.1.3.2]; TIG 1.0 §2.8.10.11","ECOCCUR indicates dose was not given, but ECDOSE is not blank or has a value less than or equal to 0","When ECOCCUR indicates no dose, then ECDOSE needs to be null or > 0; it cannot be used to indicate a dose wasn't taken.","EC","INTERVENTIONS","","Record","Fully Executable","Published","","TRUE"
"CORE-000005","","CDISC Library API","CDISC Conformance Rules (SDTMIG/ADaMIG)","https://library.cdisc.org/api/mdr/rules","CDISC","SDTM","SDTMIG 3.2; SDTMIG 3.3","Record Data","CG0102","SDTM and SDTMIG Conformance Rules","SDTMIG v3.4 §6.1.3.1; IG v3.2 §6.1; IG v3.3 §6.1.3.1","EXTRT is PLACEBO, but EXDOSE is not equal to 0.","When EXTRT is PLACEBO, EXDOSE must equal 0","EX","INTERVENTIONS","","Record","Fully Executable","Published","","TRUE"
"CORE-000006","","CDISC Library API","CDISC Conformance Rules (SDTMIG/ADaMIG)","https://library.cdisc.org/api/mdr/rules","CDISC","SDTM","SDTMIG 3.2; SDTMIG 3.3","Record Data","CG0131; TIG0381","SDTM and SDTMIG Conformance Rules; TIG Conformance Rules","Model v2.0 §Demographics; Model v1.4 §2.2.6; Model v1.7 §Table 2.2.6; SDTM v2.1 §Section 3.2.1 Demographics","DTHFL is not ""Y"" or null","Raise an error when DTHFL ^= ""Y"" and not null","DM","SPECIAL PURPOSE","","Record","Fully Executable","Published","","TRUE"
"CORE-000007","","CDISC Library API","CDISC Conformance Rules (SDTMIG/ADaMIG)","https://library.cdisc.org/api/mdr/rules","CDISC","SDTM","SDTMIG 3.2; SDTMIG 3.3","Record Data","CG0435; TIG0587; FB0606","SDTM and SDTMIG Conformance Rules; TIG Conformance Rules; FDA Business Rules","Model v2.0 §Demographics; Model v1.4 §2.2.6; Model v1.7 §Table 2.2.6.1; SDTM v2.1 §3.2.1 Demographics; FDA §FDAB006","DTHDTC is populated but DTHFL in DM dataset is not ""Y"".","When Date/Time of Death (DTHDTC) in the DM dataset is populated then death flag (DTHFL) should be populated as 'Y' in the DM dataset for the corresponding subject.","DM","SPECIAL PURPOSE","","Record","Fully Executable","Published","","TRUE"
"CORE-000008","","CDISC Library API","CDISC Conformance Rules (SDTMIG/ADaMIG)","https://library.cdisc.org/api/mdr/rules","CDISC","SDTM","SDTMIG 3.2; SDTMIG 3.3","Record Data","CG0132; FB0601","SDTM and SDTMIG Conformance Rules; FDA Business Rules","IG v3.2 §6.3; IG v3.3 §6.3.15; IG v3.4 §4.5.8|6.3.11; FDA §FDAB006","SSTRESC in SS dataset is ""DEAD"", but DTHFL in DM dataset is not ""Y"".","When survival status is completed as 'DEAD' in the SS dataset then death flag (DTHFL) should be populated as 'Y' in the DM dataset for the corresponding subject.","DM","SPECIAL PURPOSE","","Record","Fully Executable","Published","","TRUE"
"CORE-000009","","CDISC Library API","CDISC Conformance Rules (SDTMIG/ADaMIG)","https://library.cdisc.org/api/mdr/rules","CDISC","SDTM","SDTMIG 3.2; SDTMIG 3.3","Record Data","CG0152; SEND124.1; TIG0393; TIG0061","SDTM and SDTMIG Conformance Rules; SEND Conformance Rules; TIG Conformance Rules","SDTMIG v3.4 §5.3 Specification; IG v3.2 §5; IG v3.3 §5.3; SENDIG v3.0 §5.3.1; SENDIG v3.1 §5.3.1.1; SENDIG v3.1.1 §5.3.1.1; TIG 1.0 §2.8.10.24; TIG v1.0 §2.8.9.26","ELEMENT variable has a non-null value when ETCD has a value of 'UNPLAN'","Verify that ELEMENT value is blank when ETCD is equal to UNPLAN","SE","SPECIAL PURPOSE","","Record","Fully Executable","Published","","TRUE"
"CORE-000010","","CDISC Library API","CDISC Conformance Rules (SDTMIG/ADaMIG)","https://library.cdisc.org/api/mdr/rules","CDISC","SDTM","SDTMIG 3.2; SDTMIG 3.3","Record Data","CG0153; TIG0394","SDTM and SDTMIG Conformance Rules; TIG Conformance Rules","SDTMIG v3.4 §4.2.1; IG v3.2 §4.1.2.1; IG v3.3 §4.2.1; TIG 1.0 §2.8.10.27","ARMCD value length is greater than 20","Verify ARMCD value length is <= 20","DM, TA","SPECIAL PURPOSE, TRIAL DESIGN","","Record","Fully Executable","Published","","TRUE"
"CORE-000011","","CDISC Library API","CDISC Conformance Rules (SDTMIG/ADaMIG)","https://library.cdisc.org/api/mdr/rules","CDISC","SDTM","SDTMIG 3.2; SDTMIG 3.3","Record Data","CG0175; TIG0404","SDTM and SDTMIG Conformance Rules; TIG Conformance Rules","SDTMIG v3.4 §6.3.4; IG v3.2 §6.3; IG v3.3 §6.3.4; TIG 1.0 §2.8.10.13","IEORRES is not equal to 'Y' when IECAT equals 'EXCLUSION'.","Raise an error when IECAT is equal to 'EXCLUSION' and IEORRES is not equal to 'Y'.","IE","FINDINGS","","Record","Fully Executable","Published","","TRUE"
"CORE-000012","","CDISC Library API","CDISC Conformance Rules (SDTMIG/ADaMIG)","https://library.cdisc.org/api/mdr/rules","CDISC","SDTM","SDTMIG 3.2; SDTMIG 3.3","Record Data","CG0040; TIG0319","SDTM and SDTMIG Conformance Rules; TIG Conformance Rules","SDTMIG v3.4 §6.2.1; SDTMIG v3.3 §6.2.1; SDTMIG v3.2 §6.2.; TIG 1.0 §2.8.10.1","AEOCCUR is present in AE dataset.","Raise an error when AEOCCUR exists in AE dataset.","AE","EVENTS","","Dataset","Fully Executable","Published","","TRUE"
"CORE-000013","","CDISC Library API","CDISC Conformance Rules (SDTMIG/ADaMIG)","https://library.cdisc.org/api/mdr/rules","CDISC","SDTM","SDTMIG 3.2; SDTMIG 3.3","Record Data","CG0044; TIG0323","SDTM and SDTMIG Conformance Rules; TIG Conformance Rules","SDTMIG v3.4 §6.2.1; SDTMIG v3.3 §6.2.1; SDTMIG v3.2 §6.2.; TIG 1.0 §2.8.10.1","AESTAT variable is present in AE dataset.","Raise an error when AESTAT is present in AE dataset.","AE","EVENTS","","Dataset","Fully Executable","Published","","TRUE"
"CORE-000014","","CDISC Library API","CDISC Conformance Rules (SDTMIG/ADaMIG)","https://library.cdisc.org/api/mdr/rules","CDISC","SDTM","SDTMIG 3.2; SDTMIG 3.3","Record Data","CG0087; TIG0352","SDTM and SDTMIG Conformance Rules; TIG Conformance Rules","Model v2.0 §Events|Interventions; Model v1.4 §Model v1.4[2.2.1 (Interventions )]|Model v1.4[2.2.2 (Events)]; Model v1.7 §Model v1.7[2.2.1 (Interventions )]|Model v1.7[2.2.2 (Events)]; SDTM v2.1 §Section 3.1.2 The Events Observation Class|Section 3.1.1 The Interventions Observation Class","--OCCUR should only be provided when --PRESP is equal to ""Y"".","Raise an error when --PRESP is not equals to ""Y"" and --OCCUR is present in dataset or --STAT is equal to ""NOT DONE"" and --OCCUR is not blank","","EVENTS, INTERVENTIONS","","Record","Fully Executable","Published","","TRUE"
"CORE-000015","","CDISC Library API","CDISC Conformance Rules (SDTMIG/ADaMIG)","https://library.cdisc.org/api/mdr/rules","CDISC","SDTM","SDTMIG 3.2; SDTMIG 3.3","Record Data","CG0088; TIG0353","SDTM and SDTMIG Conformance Rules; TIG Conformance Rules","Model v2.0 §Events|Interventions; Model v1.4 §Model v1.4[2.2.1 (Interventions )]|Model v1.4[2.2.2 (Events)]; Model v1.7 §Model v1.7[2.2.1 (Interventions )]|Model v1.7[2.2.2 (Events)]; SDTM v2.1 §Section 3.1.2 The Events Observation Class|Section 3.1.1 The Interventions Observation Class","--PRESP is missing in dataset when --OCCUR is present.","Raise an error when --PRESP does not exists in a dataset and --OCCUR exist.","","EVENTS, INTERVENTIONS","","Dataset","Fully Executable","Published","","TRUE"
"CORE-000016","","CDISC Library API","CDISC Conformance Rules (SDTMIG/ADaMIG)","https://library.cdisc.org/api/mdr/rules","CDISC","SDTM","SDTMIG 3.2; SDTMIG 3.3","Record Data","CG0089; TIG0354","SDTM and SDTMIG Conformance Rules; TIG Conformance Rules","Model v2.0 §Events; Model v2.0 §Interventions; Model v1.4 §Model v1.4[2.2.1 (Interventions )]|Model v1.4[2.2.2 (Events)]; Model v1.7 §Model v1.7[2.2.1 (Interventions )]|Model v1.7[2.2.2 (Events)]; SDTM v2.1 §Section 3.1.2 The Events Observation Class; SDTM v2.1 §3.1.1 The Interventions Observation Class","--PRESP should be populated as ""Y"" when --OCCUR is provided.","Raise an error when --OCCUR is not empty and --PRESP is not equal to ""Y"".","","EVENTS, INTERVENTIONS","","Record","Fully Executable","Published","","TRUE"
"CORE-000017","","CDISC Library API","CDISC Conformance Rules (SDTMIG/ADaMIG)","https://library.cdisc.org/api/mdr/rules","CDISC","SDTM","SDTMIG 3.2; SDTMIG 3.3","Record Data","CG0166; TIG0398","SDTM and SDTMIG Conformance Rules; TIG Conformance Rules","SDTMIG v3.4 §5.1; IG v3.2 §5; IG v3.3 §5.1; TIG 1.0 §2.8.10.2","RDOMAIN has a missing value when IDVARVAL has a non-missing value.","Raise an error when RDOMAIN is null when IDVARVAL is not null.","CO","SPECIAL PURPOSE","","Record","Fully Executable","Published","","TRUE"
"CORE-000018","","CDISC Library API","CDISC Conformance Rules (SDTMIG/ADaMIG)","https://library.cdisc.org/api/mdr/rules","CDISC","SDTM","SDTMIG 3.2; SDTMIG 3.3","Record Data","CG0086; TIG0351","SDTM and SDTMIG Conformance Rules; TIG Conformance Rules","Model v2.0 §Events|Interventions; Model v1.4 §Model v1.4[2.2.1 (Interventions)]|Model v1.4[2.2.2 (Events)]; Model v1.7 §Model v1.7[2.2.1 (Interventions)]|Model v1.7[2.2.2 (Events)]; SDTM v2.1 §Section 3.1.2 The Events Observation Class|Section 3.1.1 The Interventions Observation Class","--OCCUR is blank when --PRESP is equal to ""Y"" and --STAT is not provided.","Raise an error when --PRESP is equal to ""Y"", --STAT is blank, --OCCUR is present in dataset and --OCCUR is blank","","EVENTS, INTERVENTIONS","","Record","Fully Executable","Published","","TRUE"
"CORE-000019","","CDISC Library API","CDISC Conformance Rules (SDTMIG/ADaMIG)","https://library.cdisc.org/api/mdr/rules","CDISC","SDTM","SDTMIG 3.2; SDTMIG 3.3","Variable Metadata Check","CG0311; SEND3; TIG0486; TIG0211","SDTM and SDTMIG Conformance Rules; SEND Conformance Rules; TIG Conformance Rules","IG v3.4 §4.2.1; IG v3.2 §2.2; IG v3.3 §4.2.1; IG v3.1 §3.2.2; IG v3.1.1 §3.2.2; IG v3.0 §3.2.2; TIG 1.0 §2.6; TIG v1.0 §2.6 Guidance for Datasets","Variable label length should be less than or equal to 40 characters","Raise and error if Variable label length > 40 characters","ALL","ALL","","Dataset","Fully Executable","Published","","TRUE"
"CORE-000020","","CDISC Library API","CDISC Conformance Rules (SDTMIG/ADaMIG)","https://library.cdisc.org/api/mdr/rules","CDISC","SDTM","SDTMIG 3.2; SDTMIG 3.3","Record Data","CG0206; TIG0426","SDTM and SDTMIG Conformance Rules; TIG Conformance Rules","IG v3.4 §5.3; IG v3.2 §5 SE; IG v3.3 §5.3; TIG 1.0 §2.8.10.24","TAETORD should be null when ETCD = 'UNPLAN'.","Raise an error when ETCD=""UNPLAN"" and TAETORD is not null.","SE","SPECIAL PURPOSE","","Record","Fully Executable","Published","","TRUE"
"CORE-000021","","CDISC Library API","CDISC Conformance Rules (SDTMIG/ADaMIG)","https://library.cdisc.org/api/mdr/rules","CDISC","SDTM","SDTMIG 3.2; SDTMIG 3.3","Record Data","CG0397; TIG0559","SDTM and SDTMIG Conformance Rules; TIG Conformance Rules","Model v2.0|IG v3.4 §Findings|6.3.5.3; IG v3.2|Model v1.4 §IG v3.2[6.3 LB]|Model v1.4[2.2.3]; IG v3.3|Model v1.7 §IG v3.3[6.3.6]|Model v1.7[2.2.3]; SDTM v2.1 §3.3.3 The Findings Observation Class; TIG v1.0 §2.8.7.1","--STRESC should not be blank when either --ORRES is provided or --DRVFL = 'Y' .","Raise an error when the value for --STRESC is null.","ALL","FINDINGS","","Record","Fully Executable","Published","","TRUE"
"CORE-000022","","CDISC Library API","CDISC Conformance Rules (SDTMIG/ADaMIG)","https://library.cdisc.org/api/mdr/rules","CDISC","SDTM","SDTMIG 3.2; SDTMIG 3.3","Record Data","CG0041; TIG0320","SDTM and SDTMIG Conformance Rules; TIG Conformance Rules","SDTMIG v3.4 §6.2.1; SDTMIG v3.3 §6.2.1; SDTMIG v3.2 §6.2.; TIG 1.0 §2.8.10.1","At least one of the Seriousness criteria (AESCAN, AESCONG, AESDISAB, AESDTH, AESHOSP, AESLIFE, AESOD or AESMIE)  = 'Y', but AESER = 'N' or empty.","Raise an error when AESCAN, AESCONG, AESDISAB, AESDTH, AESHOSP, AESLIFE, AESOD or AESMIE = 'Y' and AESER = 'N' or is empty.","AE","EVENTS","","Record","Fully Executable","Published","","TRUE"
"CORE-000023","","CDISC Library API","CDISC Conformance Rules (SDTMIG/ADaMIG)","https://library.cdisc.org/api/mdr/rules","CDISC","SDTM","SDTMIG 3.2; SDTMIG 3.3","Record Data","CG0084; TIG0349","SDTM and SDTMIG Conformance Rules; TIG Conformance Rules","Model v2.0 §Events; Model v2.0 §Findings; Model v1.7 §2.2.2; Model v1.4 §2.2.2; SDTM v2.1 §Section 3.1.2 The Events Observation Class|Section 3.1.3 The Findings Observation Class","--TOX present in dataset even though --TOXGR is not","Raise an error when --TOXGR is not present in dataset, but --TOX is present","ALL","EVENTS, FINDINGS","","Dataset","Fully Executable","Published","","TRUE"
"CORE-000024","","CDISC Library API","CDISC Conformance Rules (SDTMIG/ADaMIG)","https://library.cdisc.org/api/mdr/rules","CDISC","SDTM","SDTMIG 3.2; SDTMIG 3.3","Record Data","CG0082; TIG0347","SDTM and SDTMIG Conformance Rules; TIG Conformance Rules","Model v2.0 §Events; Model v1.7 §2.2.2; Model v1.4 §Events; SDTM v2.1 §3.1.2 The Events Observation Class","--BODSYS is not empty and --BDSYCD is empty","Raise an error if --BODSYS is not empty, --BDSYCD is empty","ALL","EVENTS","","Record","Fully Executable","Published","","TRUE"
"CORE-000025","","CDISC Library API","CDISC Conformance Rules (SDTMIG/ADaMIG)","https://library.cdisc.org/api/mdr/rules","CDISC","SDTM","SDTMIG 3.2; SDTMIG 3.3","Record Data","CG0177; TIG0406","SDTM and SDTMIG Conformance Rules; TIG Conformance Rules","SDTMIG v3.4 §6.3.4; IG v3.2 §6.3; IG v3.3 §6.3.4; TIG 1.0 §2.8.10.13","IESTRESC is not equal to IEORRES","IESTRESC is not equal to IEORRES","IE","FINDINGS","","Record","Fully Executable","Published","","TRUE"
"CORE-000026","","CDISC Library API","CDISC Conformance Rules (SDTMIG/ADaMIG)","https://library.cdisc.org/api/mdr/rules","CDISC","SDTM","SDTMIG 3.2; SDTMIG 3.3","Record Data","CG0468; TIG0598","SDTM and SDTMIG Conformance Rules; TIG Conformance Rules","IG v3.3 §4.4.10 Timing Variables for All Classes; IG v3.2 §4.1.4.10; IG v3.3 §4.4.10; TIG 1.0 §2.8.7.5","The --TPTNUM variable does not exist when --TPT does exist.","When --TPT is present in a dataset, --TPTNUM must also be present.","ALL","ALL","","Dataset","Fully Executable","Published","","TRUE"
"CORE-000027","","CDISC Library API","CDISC Conformance Rules (SDTMIG/ADaMIG)","https://library.cdisc.org/api/mdr/rules","CDISC","SDTM","SDTMIG 3.2; SDTMIG 3.3","Record Data","CG0328; TIG0496; CG0329; TIG0497; SEND214; TIG0141","SDTM and SDTMIG Conformance Rules; TIG Conformance Rules; SEND Conformance Rules","SDTMIG v3.4 §7.2.2; IG v3.2 §7.2; IG v3.3 §7.2.2; TIG 1.0 §2.8.10.28; IG v3.4 §7.2.2; IG v3.0 §7.2.1; IG v3.1 §7.2.1; IG v3.1.1 §7.2.1; TIG v1.0 §2.8.9.29","At least one of TEENRL and TEDUR must be populated.","Either TEENRL or TEDUR must be present for each Element.","TE","TRIAL DESIGN","","Record","Fully Executable","Published","","TRUE"
"CORE-000028","","CDISC Library API","CDISC Conformance Rules (SDTMIG/ADaMIG)","https://library.cdisc.org/api/mdr/rules","CDISC","SDTM","SDTMIG 3.2; SDTMIG 3.3","Record Data","CG0008; TIG0293","SDTM and SDTMIG Conformance Rules; TIG Conformance Rules","SDTM Model v2.0 §Timing; SDTM Model v1.7 §2.2.5; SDTM Model v1.4 §2.2.5; TIG 1.0 §2.8.7.6","--TPTREF is empty and --ELTM is not empty","Raise an error when --TPTREF is empty, but --ELTM is not empty","ALL","ALL","","Record","Fully Executable","Published","","TRUE"
"CORE-000030","","CDISC Library API","CDISC Conformance Rules (SDTMIG/ADaMIG)","https://library.cdisc.org/api/mdr/rules","CDISC","SDTM","SDTMIG 3.2; SDTMIG 3.3","Record Data","CG0053; TIG0329","SDTM and SDTMIG Conformance Rules; TIG Conformance Rules","SDTM v2.0 §Events|Interventions; SDTM v1.7 §2.2.1 (Interventions )|2.2.2 (Events); SDTM v1.4 §2.2.1 (Interventions )|2.2.2 (Events); SDTM v2.1 §3.1.2 The Events Observation Class|3.1.2 The Interventions Observation Class","--REASND should not be present in dataset when --PRESP is not present in dataset","Raise and error when --REASND is present in dataset and --PRESP is not present in dataset","","EVENTS, INTERVENTIONS","","Dataset","Fully Executable","Published","","TRUE"
"CORE-000033","","CDISC Library API","CDISC Conformance Rules (SDTMIG/ADaMIG)","https://library.cdisc.org/api/mdr/rules","CDISC","SDTM","SDTMIG 3.2; SDTMIG 3.3","Record Data","CG0065; TIG0337","SDTM and SDTMIG Conformance Rules; TIG Conformance Rules","SDTMIG v3.4 §6.2.3; SDTMIG v3.3 §6.2.3; SDTMIG v3.2 §6.2; TIG 1.0 §2.8.10.8","DSDECOD is not equal to ""COMPLETED"" when DSTERM equals ""COMPLETED"".","Raise an error when DSTERM = ""COMPLETED"" and DSDECOD not equal to ""COMPLETED"".","DS","EVENTS","","Record","Fully Executable","Published","","TRUE"
"CORE-000034","","CDISC Library API","CDISC Conformance Rules (SDTMIG/ADaMIG)","https://library.cdisc.org/api/mdr/rules","CDISC","SDTM","SDTMIG 3.2; SDTMIG 3.3","Record Data","CG0069; TIG0339","SDTM and SDTMIG Conformance Rules; TIG Conformance Rules","SDTMIG v3.4 §5.2; SDTMIG v3.3 §5.2; SDTMIG v3.2 §5; TIG 1.0 §2.8.10.4","DSSTDTC does not equal DM.DTHDTC, when DSDECOD equals ""DEATH"".","Raise an error when DSSTDTC is not equal to DM.DTHDTC and DSDECOD is equal to ""DEATH""","DS","EVENTS","","Record","Fully Executable","Published","","TRUE"
"CORE-000041","","CDISC Library API","CDISC Conformance Rules (SDTMIG/ADaMIG)","https://library.cdisc.org/api/mdr/rules","CDISC","SDTM","SDTMIG 3.2; SDTMIG 3.3","Record Data","CG0649; TIG0689; CG0459","SDTM and SDTMIG Conformance Rules; TIG Conformance Rules","SDTMIG v3.4 §7.4.2; SDTMIG v3.4 §7.4.2.1; TIG v1.0 §2.8.10.32; IG v3.2 §Section 7.4-TS: Use of Null Flavor Enumeration; IG v3.3 §7.4.2.1","TSVAL is not populated with an ISO 21090 null flavor or null flavor description but TSVALNF is populated.","Raise and error when TSVAL is not populated TSVAL is populated with values or synonyms of values in the ISO 21090 null flavor codelist (or other terms that can be represented as null flavors) but TSVALNF is completed.","TS","TRIAL DESIGN","","Record","Fully Executable","Published","","TRUE"
"CORE-000045","","CDISC Library API","CDISC Conformance Rules (SDTMIG/ADaMIG)","https://library.cdisc.org/api/mdr/rules","CDISC","SDTM","SDTMIG 3.3","Record Data","CG0517; TIG0612","SDTM and SDTMIG Conformance Rules; TIG Conformance Rules","IG v3.4 §5.2; IG v3.3 §5.2; TIG 1.0 §2.8.10.4","ARMNRS value is missing when ARMCD value is missing","Verify ARMNRS is not null when ARMCD is null","DM","SPECIAL PURPOSE","","Record","Fully Executable","Published","","TRUE"
"CORE-000046","","CDISC Library API","CDISC Conformance Rules (SDTMIG/ADaMIG)","https://library.cdisc.org/api/mdr/rules","CDISC","SDTM","SDTMIG 3.3","Record Data","CG0519; TIG0614","SDTM and SDTMIG Conformance Rules; TIG Conformance Rules","IG v3.4 §5.2; IG v3.3 §5.2; TIG 1.0 §2.8.10.4","ARMNRS is missing when ARM value is missing","Verify ARMNRS is not null when ARM is null","DM","SPECIAL PURPOSE","","Record","Fully Executable","Published","","TRUE"
"CORE-000047","","CDISC Library API","CDISC Conformance Rules (SDTMIG/ADaMIG)","https://library.cdisc.org/api/mdr/rules","CDISC","SDTM","SDTMIG 3.3","Record Data","CG0518; TIG0613","SDTM and SDTMIG Conformance Rules; TIG Conformance Rules","SDTMIG v3.4 §5.2; IG v3.3 §5.2; TIG 1.0 §2.8.10.4","ARM value in DM dataset is not among the values of ARM variable in TA dataset. This is allowed only in a multistage study with incomplete ARM assignment. Please confirm if your study is a multistage assignment study","When study does not use multi-stage arm assignments and ARM is populated, ARM must be present in TA.ARM. This rule has been executed to identify all cases when ARM is not present in TA.ARM and therefore acknowledges that false positives may be recorded when multi-stage arm assignments are in use.","DM","SPECIAL PURPOSE","","Record","Partially Executable - Possible Overreporting","Published","","TRUE"
"CORE-000049","","CDISC Library API","CDISC Conformance Rules (SDTMIG/ADaMIG)","https://library.cdisc.org/api/mdr/rules","CDISC","SDTM","SDTMIG 3.3","Record Data","CG0507; CG0622; TIG0602; TIG0663","SDTM and SDTMIG Conformance Rules; TIG Conformance Rules","IG v3.4 §2.7; Model v2.0 §Interventions|Events|Findings; IG v3.3 §2.7; SDTM v2.1|TIG v1.0 §Section 3.1.1 - The Interventions Observations Class | Section 3.1.2 - The Events Observations Class | Section 3.1.1 - The Findings Observations Class | 2.8.2 How Extend Domains | 2.8.3 How to Create New Specifications; SDTM v2.1 §Interventions|Events|Findings","--USCHFL is present.","Raise an error when --USCHFL is present.","ALL","ALL","","Dataset","Fully Executable","Published","","TRUE"
"CORE-000057","","CDISC Library API","CDISC Conformance Rules (SDTMIG/ADaMIG)","https://library.cdisc.org/api/mdr/rules","CDISC","SDTM","SDTMIG 3.3","Record Data","CG0509; CG0630; TIG0604; TIG0671","SDTM and SDTMIG Conformance Rules; TIG Conformance Rules","SDTM v2.0 §Identifiers; IG v3.4 §2.7; IG v3.3 §2.7; SDTM v2.1|TIG v1.0 §Section 3.1.4 - Identifiers for All Classes | 2.8.2 How Extend Domains |2.8.3 How to Create New Specifications; SDTM v2.1 §Identifiers","FETUSID is present.","FETUSID must not be present in SDTM domains.","ALL","ALL","","Dataset","Fully Executable","Published","","TRUE"
"CORE-000072","","CDISC Library API","CDISC Conformance Rules (SDTMIG/ADaMIG)","https://library.cdisc.org/api/mdr/rules","CDISC","SDTM","SDTMIG 3.3","Record Data","CG0542","SDTM and SDTMIG Conformance Rules","SDTM v2.0 §Findings; Model v1.7 §Table 2.2.12.1","--BEATNO is present.","Raise an error when --BEATNO is present.","","FINDINGS","","Dataset","Fully Executable","Published","","TRUE"
"CORE-000073","","CDISC Library API","CDISC Conformance Rules (SDTMIG/ADaMIG)","https://library.cdisc.org/api/mdr/rules","CDISC","SDTM","SDTMIG 3.3","Record Data","CG0533","SDTM and SDTMIG Conformance Rules","Model v2.0 §Demographics; Model v1.7 §Table 2.2.6.1","RPATHCD is present.","Raise an error when RPATHCD is present.","DM","SPECIAL PURPOSE","","Dataset","Fully Executable","Published","","TRUE"
"CORE-000074","","CDISC Library API","CDISC Conformance Rules (SDTMIG/ADaMIG)","https://library.cdisc.org/api/mdr/rules","CDISC","SDTM","SDTMIG 3.3","Record Data","CG0508; TIG0603","SDTM and SDTMIG Conformance Rules; TIG Conformance Rules","IG v3.4 §2.7; IG v3.3 §2.7; SDTM v2.1|TIG v1.0 §Section 3.1.1 - The Findings Observations Class | 2.8.2 How Extend Domains |2.8.3 How to Create New Specifications","--IMPLBL is present.","Raise an error when --IMPLBL is present.","ALL","ALL","","Dataset","Fully Executable","Published","","TRUE"
"CORE-000075","","CDISC Library API","CDISC Conformance Rules (SDTMIG/ADaMIG)","https://library.cdisc.org/api/mdr/rules","CDISC","SDTM","SDTMIG 3.2; SDTMIG 3.3","Record Data","CG0304; TIG0481","SDTM and SDTMIG Conformance Rules; TIG Conformance Rules","IG v3.4 §6.2.1; IG v3.2 §6.2; IG v3.3 §6.2.1; TIG 1.0 §2.8.10.1","AEREASND is present.","Raise an error when AEREASND is present.","AE","EVENTS","","Dataset","Fully Executable","Published","","TRUE"
"CORE-000076","","CDISC Library API","CDISC Conformance Rules (SDTMIG/ADaMIG)","https://library.cdisc.org/api/mdr/rules","CDISC","SDTM","SDTMIG 3.2; SDTMIG 3.3","Record Data","CG0302","SDTM and SDTMIG Conformance Rules","IG v3.4 §6.3.12.2; IG v3.2 §6.3; IG v3.3 §6.3.16.2","TRPORTOT is present.","Raise an error when TRPORTOT is present.","TR","FINDINGS","","Dataset","Fully Executable","Published","","TRUE"
"CORE-000077","","CDISC Library API","CDISC Conformance Rules (SDTMIG/ADaMIG)","https://library.cdisc.org/api/mdr/rules","CDISC","SDTM","SDTMIG 3.2; SDTMIG 3.3","Record Data","CG0301","SDTM and SDTMIG Conformance Rules","SDTMIG v3.4 §6.3.12.2; IG v3.2 §6.3; IG v3.3 §6.3.16.2","TRDIR is present.","Raise an error when TRDIR is present.","TR","FINDINGS","","Dataset","Fully Executable","Published","","TRUE"
"CORE-000078","","CDISC Library API","CDISC Conformance Rules (SDTMIG/ADaMIG)","https://library.cdisc.org/api/mdr/rules","CDISC","SDTM","SDTMIG 3.2; SDTMIG 3.3","Record Data","CG0300","SDTM and SDTMIG Conformance Rules","IG v3.4 §6.3.12.2; IG v3.2 §6.3; IG v3.3 §6.3.16.2","TRLAT is present.","Raise an error when TRLAT is present.","TR","FINDINGS","","Dataset","Fully Executable","Published","","TRUE"
"CORE-000079","","CDISC Library API","CDISC Conformance Rules (SDTMIG/ADaMIG)","https://library.cdisc.org/api/mdr/rules","CDISC","SDTM","SDTMIG 3.2; SDTMIG 3.3","Record Data","CG0095","SDTM and SDTMIG Conformance Rules","Model v2.0 §Events|Interventions|Findings; Model v1.4 §2.2.2; Model v1.7 §2.2.2","--LAT is present when --LOC is not present.","Raise an error when --LOC is not present and --LAT is present.","ALL","ALL","","Dataset","Fully Executable","Published","","TRUE"
"CORE-000080","","CDISC Library API","CDISC Conformance Rules (SDTMIG/ADaMIG)","https://library.cdisc.org/api/mdr/rules","CDISC","SDTM","SDTMIG 3.2; SDTMIG 3.3","Record Data","CG0093; TIG0358","SDTM and SDTMIG Conformance Rules; TIG Conformance Rules","Model v2.0 §Timing; Model v1.4 §2.2.5 Timing Variables for All Classes; Model v1.7 §2.2.5 Timing Variables for All Classes; SDTM v2.1 §Section 3.1.5 Timing Variables for All Classes","--TPTREF is present when --ELTM, --TPTNUM, and --TPT are not present.","Raise an error when --ELTM, --TPTNUM, and --TPT are not present in dataset, but --TPTREF is present.","ALL","ALL","","Dataset","Fully Executable","Published","","TRUE"
"CORE-000081","","CDISC Library API","CDISC Conformance Rules (SDTMIG/ADaMIG)","https://library.cdisc.org/api/mdr/rules","CDISC","SDTM","SDTMIG 3.2; SDTMIG 3.3","Record Data","CG0056; TIG0330","SDTM and SDTMIG Conformance Rules; TIG Conformance Rules","SDTM v2.0 §Events; SDTM v2.0 §Interventions; SDTM v1.7 §Model v1.7[2.2.1 (Interventions )]; SDTM v1.7 §Model v1.7[2.2.2 (Events)]; SDTM v1.4 §Model v1.4[2.2.1 (Interventions); SDTM v1.4 §Model v1.4[2.2.2 (Events)]; SDTM v2.1 §3.1.1The Interventions Observation Class|3.1.2 The Events  Observation Class","--STAT is present when --PRESP is not present.","Raise an error when --PRESP is not present but --STAT is present.","","EVENTS, INTERVENTIONS","","Dataset","Fully Executable","Published","","TRUE"
"CORE-000082","","CDISC Library API","CDISC Conformance Rules (SDTMIG/ADaMIG)","https://library.cdisc.org/api/mdr/rules","CDISC","SDTM","SDTMIG 3.3","Record Data","CG0561","SDTM and SDTMIG Conformance Rules","IG v3.4 §6.3.8; IG v3.3 §6.3.12","PESTRESC value is not missing when PEORRES value is missing","Verify that PESTRESC is null when PEORRES is null","PE","FINDINGS","","Record","Fully Executable","Published","","TRUE"
"CORE-000083","","CDISC Library API","CDISC Conformance Rules (SDTMIG/ADaMIG)","https://library.cdisc.org/api/mdr/rules","CDISC","SDTM","SDTMIG 3.3","Record Data","CG0553; TIG0641","SDTM and SDTMIG Conformance Rules; TIG Conformance Rules","Model v2.0 §The Findings Observation Class; Model v1.7 §Table 2.2.3; SDTM v2.1 §3.1.3 The Findings Observation Class","--ORRES is missing even though --LOBXFL= ""Y"" and either --DRVFL is not present in dataset or is not equal to ""Y""","Verify that --ORRES is not null when --LOBXFL = Y and --DRVFL= null or --DRVFL is not present in the dataset","ALL","FINDINGS","","Record","Fully Executable","Published","","TRUE"
"CORE-000084","","CDISC Library API","CDISC Conformance Rules (SDTMIG/ADaMIG)","https://library.cdisc.org/api/mdr/rules","CDISC","SDTM","SDTMIG 3.2; SDTMIG 3.3","Record Data","CG0057; TIG0331","SDTM and SDTMIG Conformance Rules; TIG Conformance Rules","Model v2.0 §Timing; Model v1.7 §2.2.5 Timing Variables for All Classes; Model v1.4 §2.2.5 Timing Variables for All Classes; SDTM v2.1 §Section 3.1.5 Timing Variables for All Classes","--ENTPT exists in a dataset, but --ENRTPT does not exist.","Raise an error when --ENTPT exists in a dataset and --ENRTPT does not exist.","ALL","ALL","","Dataset","Fully Executable","Published","","TRUE"
"CORE-000085","","CDISC Library API","CDISC Conformance Rules (SDTMIG/ADaMIG)","https://library.cdisc.org/api/mdr/rules","CDISC","SDTM","SDTMIG 3.2; SDTMIG 3.3","Record Data","CG0059; TIG0333","SDTM and SDTMIG Conformance Rules; TIG Conformance Rules","Model v2.0 §Timing; Model v1.7 §2.2.5. Timing Variables for All Classes; Model v1.4 §2.2.5 Timing Variables for All Classes; SDTM v2.1 §Section 3.1.5 Timing Variables for All Classes","--STTPT is completed and --STRTPT is empty","Raise an error when --STTPT is completed and --STRTPT is empty","ALL","ALL","","Record","Fully Executable","Published","","TRUE"
"CORE-000086","","CDISC Library API","CDISC Conformance Rules (SDTMIG/ADaMIG)","https://library.cdisc.org/api/mdr/rules","CDISC","SDTM","SDTMIG 3.2; SDTMIG 3.3","Record Data","CG0075; TIG0341","SDTM and SDTMIG Conformance Rules; TIG Conformance Rules","IG v3.4 §6.2.7; IG v3.3 §6.2.4; IG v3.2 §6.2; TIG 1.0 §2.8.10.19","DVSTDTC is earlier than RFICDTC in DM.","Raise an error when DVSTDTC is earlier than RFICDTC in DM.","DV","EVENTS","","Record","Fully Executable","Published","","TRUE"
"CORE-000087","","CDISC Library API","CDISC Conformance Rules (SDTMIG/ADaMIG)","https://library.cdisc.org/api/mdr/rules","CDISC","SDTM","SDTMIG 3.2; SDTMIG 3.3","Record Data","CG0387; TIG0549","SDTM and SDTMIG Conformance Rules; TIG Conformance Rules","Model v2.0 §Events; Model v1.7 §2.2.2; Model v1.4 §2.2.2; SDTM v2.1 §3.1.2  The Events Observation Class","AESER is completed, but not equal to ""N"" or ""Y""","Raise an error when AESER is completed and value is not 'Y' or 'N'","AE","EVENTS","","Record","Fully Executable","Published","","TRUE"
"CORE-000088","","CDISC Library API","CDISC Conformance Rules (SDTMIG/ADaMIG)","https://library.cdisc.org/api/mdr/rules","CDISC","SDTM","SDTMIG 3.2; SDTMIG 3.3","Record Data","CG0149; SEND25; TIG0169; TIG0390","SDTM and SDTMIG Conformance Rules; SEND Conformance Rules; TIG Conformance Rules","Model v2.0 §Demographics; Model v1.4 §2.2.6; Model v1.7 §Table 2.2.6.1; IG v3.0 §4.2.1; IG v3.1 §4.2.1; IG v3.1.1 §4.2.1; TIG v1.0 §2.8.9.31; SDTM v2.1 §Section 3.2.1 Demographics","SETCD value length is greater than 8","Verify that the length of value in SETCD variable is <= 8","DM, TX","SPECIAL PURPOSE, TRIAL DESIGN","","Record","Fully Executable","Published","","TRUE"
"CORE-000089","","CDISC Library API","CDISC Conformance Rules (SDTMIG/ADaMIG)","https://library.cdisc.org/api/mdr/rules","CDISC","SDTM","SDTMIG 3.2; SDTMIG 3.3","Record Data","CG0106","SDTM and SDTMIG Conformance Rules","Model v2.0 §Interventions; Model v1.4 §2.2.1; Model v1.7 §2.2.1","Value for --VAMT is populated, when --TRTV is NULL.","Raise an error when --TRTV is empty, --VAMT is not empty","ALL","INTERVENTIONS","","Record","Fully Executable","Published","","TRUE"
"CORE-000090","","CDISC Library API","CDISC Conformance Rules (SDTMIG/ADaMIG)","https://library.cdisc.org/api/mdr/rules","CDISC","SDTM","SDTMIG 3.2; SDTMIG 3.3","Record Data","CG0164; TIG0397","SDTM and SDTMIG Conformance Rules; TIG Conformance Rules","SDTMIG v3.4 §5.1; IG v3.2 §5; IG v3.3 §5.1; TIG 1.0 §2.8.10.2","RDOMAIN has a missing value but IDVAR has a non-missing value","Verify IDVAR is null when RDOMAIN is null","CO","SPECIAL PURPOSE","","Record","Fully Executable","Published","","TRUE"
"CORE-000091","","CDISC Library API","CDISC Conformance Rules (SDTMIG/ADaMIG)","https://library.cdisc.org/api/mdr/rules","CDISC","SDTM","SDTMIG 3.2; SDTMIG 3.3","Record Data","CG0108","SDTM and SDTMIG Conformance Rules","Model v2.0 §Interventions; Model v1.4 §2.2.1; Model v1.7 §2.2.1","Value for --VAMTU is populated, when --TRTV is NULL.","Raise an error when --TRTV is null, --VAMTU is not null","ALL","INTERVENTIONS","","Record","Fully Executable","Published","","TRUE"
"CORE-000092","","CDISC Library API","CDISC Conformance Rules (SDTMIG/ADaMIG)","https://library.cdisc.org/api/mdr/rules","CDISC","SDTM","SDTMIG 3.2; SDTMIG 3.3","Record Data","CG0110; CG0111; TIG0374; TIG0375","SDTM and SDTMIG Conformance Rules; TIG Conformance Rules","Model v2.0 §Interventions; Model v1.4 §2.2.1; Model v1.4 §Interventions; Model v1.7 §2.2.1; Model v1.7 §Interventions; SDTM v2.1 §3.1.1 The Interventions Observation Class","Both --DOSE and --DOSTXT values are populated","Raise an error when --DOSE ^= null and --DOSTXT ^= null.","ALL","INTERVENTIONS","","Record","Fully Executable","Published","","TRUE"
"CORE-000093","","CDISC Library API","CDISC Conformance Rules (SDTMIG/ADaMIG)","https://library.cdisc.org/api/mdr/rules","CDISC","SDTM","SDTMIG 3.2; SDTMIG 3.3","Record Data","CG0114; TIG0377","SDTM and SDTMIG Conformance Rules; TIG Conformance Rules","Model v2.0 §Interventions; Model v1.4 §2.2.1; Model v1.7 §2.2.1; SDTM v2.1 §3.1.1 The Interventions Observation Class","Missing value for --DOSU, when --DOSE, --DOSTXT or --DOSTOT is provided","Raise an error when --DOSU = null and (--DOSE ^= null or --DOSTOT ^= null or --DOSTXT ^= null)","ALL","INTERVENTIONS","","Record","Fully Executable","Published","","TRUE"
"CORE-000094","","CDISC Library API","CDISC Conformance Rules (SDTMIG/ADaMIG)","https://library.cdisc.org/api/mdr/rules","CDISC","SDTM","SDTMIG 3.2; SDTMIG 3.3","Record Data","CG0112; TIG0376","SDTM and SDTMIG Conformance Rules; TIG Conformance Rules","Model v2.0 §Interventions; Model v1.4 §2.2.1; Model v1.7 §2.2.1; SDTM v2.1 §3.1.1 The Interventions Observation Class","--DOSTXT value is numeric.","Raise an error if --DOSTXT value is numeric.","ALL","INTERVENTIONS","","Record","Fully Executable","Published","","TRUE"
"CORE-000095","","CDISC Library API","CDISC Conformance Rules (SDTMIG/ADaMIG)","https://library.cdisc.org/api/mdr/rules","CDISC","SDTM","SDTMIG 3.2; SDTMIG 3.3","Record Data","CG0211; TIG0430","SDTM and SDTMIG Conformance Rules; TIG Conformance Rules","IG v3.4 §5.3; IG v3.2 §5 SE; IG v3.3 §5.3; TIG 1.0 §2.8.10.24","ETCD is not 'UNPLAN', when SEUPDES is not empty","Raise an error when SEUPDES ^= null, ETCD ^= 'UNPLAN'","SE","SPECIAL PURPOSE","","Record","Fully Executable","Published","","TRUE"
"CORE-000096","","CDISC Library API","CDISC Conformance Rules (SDTMIG/ADaMIG)","https://library.cdisc.org/api/mdr/rules","CDISC","SDTM","SDTMIG 3.2; SDTMIG 3.3","Record Data","CG0115; TIG0378","SDTM and SDTMIG Conformance Rules; TIG Conformance Rules","Model v2.0 §Events Interventions Findings; Model v1.4 §2.2.2; Model v1.7 §2.2.1; SDTM v2.1 §Section 3.1.2 The Events Observation Class; SDTM v2.1 §Section 3.1.1 The Interventions Observation Class; SDTM v2.1 §Section 3.1.3 The Findings Observation Class","--PORTOT variable is present, when --LOC variable does not exist in a dataset.","Raise an error when --LOC does not exists in a dataset, --PORTOT exists.","ALL","INTERVENTIONS, FINDINGS, EVENTS","","Dataset","Fully Executable","Published","","TRUE"
"CORE-000097","","CDISC Library API","CDISC Conformance Rules (SDTMIG/ADaMIG)","https://library.cdisc.org/api/mdr/rules","CDISC","SDTM","SDTMIG 3.2; SDTMIG 3.3","Record Data","CG0218; TIG0432","SDTM and SDTMIG Conformance Rules; TIG Conformance Rules","IG v3.4 §5.5; IG v3.2 §5 SV; IG v3.3 §5.5; TIG 1.0 §2.8.10.25","EPOCH values don't match between Subject Visits (SV) and Subject Elements (SE) datasets.","Raise an error when variable EPOCH values don't match between Subject Visits (SV) and Subject Elements (SE) datasets.","SV","SPECIAL PURPOSE","","Record","Partially Executable - Possible Overreporting","Published","","TRUE"
"CORE-000098","","CDISC Library API","CDISC Conformance Rules (SDTMIG/ADaMIG)","https://library.cdisc.org/api/mdr/rules","CDISC","SDTM","SDTMIG 3.2; SDTMIG 3.3","Record Data","CG0116; TIG0379","SDTM and SDTMIG Conformance Rules; TIG Conformance Rules","Model v2.0 §Events; Model v2.0 §Interventions; Model v2.0 §Findings; Model v1.4 §2.2.2; Model v1.7 §2.2.2; SDTM v2.1 §Section 3.1.2 The Events Observation Class; SDTM v2.1 §Section 3.1.1 The Interventions Observation Class; SDTM v2.1 §Section 3.1.3 The Findings Observation Class","--DIR variable is present, when --LOC variable does not exist in a dataset.","Raise an error when --LOC does not exists in a dataset, --DIR exists.","ALL","INTERVENTIONS, FINDINGS, EVENTS","","Dataset","Fully Executable","Published","","TRUE"
"CORE-000099","","CDISC Library API","CDISC Conformance Rules (SDTMIG/ADaMIG)","https://library.cdisc.org/api/mdr/rules","CDISC","SDTM","SDTMIG 3.2; SDTMIG 3.3","Record Data","CG0422; TIG0577","SDTM and SDTMIG Conformance Rules; TIG Conformance Rules","IG v3.4 §4.5.1.1; Model v2.0 §Findings; IG v3.2 §6.3 LB; IG v3.3 §6.3.6 LB; TIG 1.0 §2.8.7.3","Value for --STAT is populated, when --ORRES is populated","Raise an error when both --ORRES and --STAT values are populated","ALL","FINDINGS","","Record","Fully Executable","Published","","TRUE"
"CORE-000100","","CDISC Library API","CDISC Conformance Rules (SDTMIG/ADaMIG)","https://library.cdisc.org/api/mdr/rules","CDISC","SDTM","SDTMIG 3.2; SDTMIG 3.3","Record Data","CG0423; TIG0578","SDTM and SDTMIG Conformance Rules; TIG Conformance Rules","Model v2.0 §Interventions; Model v1.4 §2.2.1; Model v1.7 §2.2.1; SDTM v2.1 §Section 3.1.1 The Interventions Observation Class","Missing --TRTV value, when --VAMT value is populated.","Raise an error when --VAMT is not empty, but --TRTV is empty.","ALL","INTERVENTIONS","","Record","Fully Executable","Published","","TRUE"
"CORE-000101","","CDISC Library API","CDISC Conformance Rules (SDTMIG/ADaMIG)","https://library.cdisc.org/api/mdr/rules","CDISC","SDTM","SDTMIG 3.2; SDTMIG 3.3","Record Data","CG0427; TIG0581","SDTM and SDTMIG Conformance Rules; TIG Conformance Rules","Model v2.0 §Findings; Model v1.4 §2.2.3; Model v1.7 §2.2.3; SDTM v2.1 §3.1.3 The Findings Observation Class","Missing --STRESC value, when --RESCAT value is populated.","Raise an error when --RESCAT is not empty, but --STRESC is empty","ALL","FINDINGS","","Record","Fully Executable","Published","","TRUE"
"CORE-000102","","CDISC Library API","CDISC Conformance Rules (SDTMIG/ADaMIG)","https://library.cdisc.org/api/mdr/rules","CDISC","SDTM","SDTMIG 3.2; SDTMIG 3.3","Record Data","CG0428; TIG0582","SDTM and SDTMIG Conformance Rules; TIG Conformance Rules","Model v2.0 §Events|Findings; Model v1.4 §2.2.2|2.2.3; Model v1.7 §2.2.2|2.2.3; SDTM v2.1 §Section 3.1.2 The Events Observation Class Section|3.1.3 The Findings Observation Class","--TOXGR should not be null when --TOX is populated.","Raise an error when --TOX is not empty, but --TOXGR is empty.","AE, MH, CE, EG, LB, PC, PP","EVENTS, FINDINGS","","Record","Fully Executable","Published","","TRUE"
"CORE-000103","","CDISC Library API","CDISC Conformance Rules (SDTMIG/ADaMIG)","https://library.cdisc.org/api/mdr/rules","CDISC","SDTM","SDTMIG 3.2; SDTMIG 3.3","Record Data","CG0429; TIG0583","SDTM and SDTMIG Conformance Rules; TIG Conformance Rules","Model v2.0 §Interventions; Model v2.0 §Events; Model v2.0 §Findings; Model v1.4 §2.2.1|2.2.2|2.2.3; Model v1.7 §2.2.1|2.2.2|2.2.3; SDTM v2.1 §Section 3.1.1 The Interventions Observation Class|Section 3.1.2 The Events Observation Class Section|3.1.3 The Findings Observation Class","--CAT should not be null when --SCAT is populated","Part A - Raise an error when --SCAT is not empty, but --CAT is empty.","ALL","ALL","","Record","Fully Executable","Published","","TRUE"
"CORE-000104","","CDISC Library API","CDISC Conformance Rules (SDTMIG/ADaMIG)","https://library.cdisc.org/api/mdr/rules","CDISC","SDTM","SDTMIG 3.2; SDTMIG 3.3","Record Data","CG0430; TIG0584","SDTM and SDTMIG Conformance Rules; TIG Conformance Rules","Model v2.0 §Interventions; Model v2.0 §Events; Model v2.0 §Findings; Model v1.4 §2.2.1|2.2.2|2.2.3; Model v1.7 §2.2.1|2.2.2|2.2.3; SDTM v2.1 §Section 3.1.1 The Interventions Observation Class; SDTM v2.1 §Section 3.1.2 The Events Observation Class Section; SDTM v2.1 §3.1.3 The Findings Observation Class","--SCAT exists in a dataset, but --CAT does not exist.","Part A - Raise an error when --SCAT exists in a dataset, but --CAT does not exist.","ALL","ALL","","Dataset","Fully Executable","Published","","TRUE"
"CORE-000105","","CDISC Library API","CDISC Conformance Rules (SDTMIG/ADaMIG)","https://library.cdisc.org/api/mdr/rules","CDISC","SDTM","SDTMIG 3.3","Record Data","CG0569; TIG0653; FB2602","SDTM and SDTMIG Conformance Rules; TIG Conformance Rules; FDA Business Rules","Model v2.0 §Findings; Model v1.7 §Table 2.2.3; SDTM v2.1 §3.1.3 The Findings Observation Class; FDA §FDAB026","--LOBXFL = 'Y', but --STRESC is empty.","Raise an error when --LOBXFL = 'Y' and --STRESC is empty.","ALL","FINDINGS","","Record","Fully Executable","Published","","TRUE"
"CORE-000106","","CDISC Library API","CDISC Conformance Rules (SDTMIG/ADaMIG)","https://library.cdisc.org/api/mdr/rules","CDISC","SDTM","SDTMIG 3.2; SDTMIG 3.3","Record Data","CG0045; TIG0324","SDTM and SDTMIG Conformance Rules; TIG Conformance Rules","Model v2.0 §Timing; Model v1.7 §2.2.5 Timing Variables for All Classes; Model v1.4 §2.2.5 Timing Variables for All Classes; SDTM v2.1 §Section 3.1.5 Timing Variables for All Classes","--ENTPT is completed, but --ENRTPT is not completed.","Raise an error when --ENTPT is completed and --ENRTPT is not completed.","ALL","ALL","","Record","Fully Executable","Published","","TRUE"
"CORE-000107","","CDISC Library API","CDISC Conformance Rules (SDTMIG/ADaMIG)","https://library.cdisc.org/api/mdr/rules","CDISC","SDTM","SDTMIG 3.3","Record Data","CG0554; TIG0642","SDTM and SDTMIG Conformance Rules; TIG Conformance Rules","Model v2.0 §Identifiers; Model v2.0 §Associated Persons Data; Model v1.7 §2.2.4; SDTM v2.1 §Section 3.1.4 Identifiers For All Classes; SDTM v2.1 §Section 4.0  Associated Persons Data","An appropriate identifier is not present; USUBJID, APID, SPDEVID, SPTOBID, POOLID, SPTOBID, STOCONID should be present.","APID is required in all Associated Persons Data. In addition to STUDYID, DOMAIN, and --SEQ being required for all domains based on one of the 3 general observation classes, one of USUBJID, APID, SPDEVID, or POOLID must also be present.","ALL","EVENTS, INTERVENTIONS, FINDINGS ABOUT, FINDINGS","","Dataset","Fully Executable","Published","","TRUE"
"CORE-000108","","CDISC Library API","CDISC Conformance Rules (SDTMIG/ADaMIG)","https://library.cdisc.org/api/mdr/rules","CDISC","SDTM","SDTMIG 3.2; SDTMIG 3.3","Record Data","CG0133; TIG0382; FB0602","SDTM and SDTMIG Conformance Rules; TIG Conformance Rules; FDA Business Rules","IG v3.4 §5.2; IG v3.4 §6.3.2; IG v3.2 §5; IG v3.3 §IG v3.3[5.2]|IG v3.3[6.3.2]; TIG 1.0 §2.8.10.4; FDA §FDAB006","DD record is present, but DTHFL in DM dataset is not ""Y"".","When a record is present in the DD dataset then death flag (DTHFL) should be populated as 'Y' in the DM dataset for the corresponding subject.","DM","SPECIAL PURPOSE","","Dataset","Fully Executable","Published","","TRUE"
"CORE-000109","","CDISC Library API","CDISC Conformance Rules (SDTMIG/ADaMIG)","https://library.cdisc.org/api/mdr/rules","CDISC","SDTM","SDTMIG 3.2; SDTMIG 3.3","Record Data","CG0547","SDTM and SDTMIG Conformance Rules","SDTMIG v3.4 §5.4; IG v3.3 §5.5","SMSTDTC is null.","Raise an error when SMSTDTC is null.","SM","SPECIAL PURPOSE","","Record","Fully Executable","Published","","TRUE"
"CORE-000110","","CDISC Library API","CDISC Conformance Rules (SDTMIG/ADaMIG)","https://library.cdisc.org/api/mdr/rules","CDISC","SDTM","SDTMIG 3.3","Record Data","CG0549; TIG0637","SDTM and SDTMIG Conformance Rules; TIG Conformance Rules","SDTM v2.0 §Findings; Model v1.7 §Table 2.2.3; SDTM v2.1 §3.1.3 The Findings Observation Class","--STREFC is null when --ORREF is non-empty or --DRVFL is equal to 'Y'","Raise an error when (--ORREF ^= null or --DRVFL='Y') and --STREFC is null.","ALL","FINDINGS","","Record","Fully Executable","Published","","TRUE"
"CORE-000111","","CDISC Library API","CDISC Conformance Rules (SDTMIG/ADaMIG)","https://library.cdisc.org/api/mdr/rules","CDISC","SDTM","SDTMIG 3.3","Record Data","CG0564; TIG0649","SDTM and SDTMIG Conformance Rules; TIG Conformance Rules","Model v2.0 §Findings; Model v1.7 §Table 2.2.12.1; SDTM v2.1 §3.1.3 The Findings Observation Class","--AGENT is present in a dataset other than MS.","Raise an error when --AGENT is present in a dataset other than MS.","","FINDINGS","","Dataset","Fully Executable","Published","","TRUE"
"CORE-000112","","CDISC Library API","CDISC Conformance Rules (SDTMIG/ADaMIG)","https://library.cdisc.org/api/mdr/rules","CDISC","SDTM","SDTMIG 3.3","Record Data","CG0565; TIG0650","SDTM and SDTMIG Conformance Rules; TIG Conformance Rules","Model v2.0 §Findings; Model v1.7 §Table 2.2.12.1; SDTM v2.1 §3.1.3 The Findings Observation Class","--CONC is present in a dataset other than MS.","Raise an error when --CONC is present in a dataset other than MS.","","FINDINGS","","Dataset","Fully Executable","Published","","TRUE"
"CORE-000113","","CDISC Library API","CDISC Conformance Rules (SDTMIG/ADaMIG)","https://library.cdisc.org/api/mdr/rules","CDISC","SDTM","SDTMIG 3.3","Record Data","CG0566; TIG0651","SDTM and SDTMIG Conformance Rules; TIG Conformance Rules","Model v2.0 §Findings; Model v1.7 §Table 2.2.12.1; SDTM v2.1 §3.1.3 The Findings Observation Class","--CONCU is present in a dataset other than MS.","Raise an error when --CONCU is present in a dataset other than MS.","","FINDINGS","","Dataset","Fully Executable","Published","","TRUE"
"CORE-000114","","CDISC Library API","CDISC Conformance Rules (SDTMIG/ADaMIG)","https://library.cdisc.org/api/mdr/rules","CDISC","SDTM","SDTMIG 3.3","Record Data","CG0567; TIG0652","SDTM and SDTMIG Conformance Rules; TIG Conformance Rules","Model v2.0 §Events; Model v1.7 §Table 2.2.12.1; SDTM v2.1 §3.1.2 The Events Observation Class","--EVDTYP is present in a dataset other than MH.","Raise an error when --EVDTYP is present in a dataset other than MH.","","EVENTS","","Dataset","Fully Executable","Published","","TRUE"
"CORE-000115","","CDISC Library API","CDISC Conformance Rules (SDTMIG/ADaMIG)","https://library.cdisc.org/api/mdr/rules","CDISC","SDTM","SDTMIG 3.3","Record Data","CG0570","SDTM and SDTMIG Conformance Rules","SDTMIG v3.4 §7.2; SDTMIG v3.4 §7.3.1; SDTMIG v3.4 §5.2; IG v3.3 §7.2|5.2|7.3","ARM cannot be equal to 'Screen Failure', 'Not Assigned', 'Unplanned Treatment' or 'Not Treated'.","Raise an error when ARM is 'Screen Failure', 'Not Assigned', 'Unplanned Treatment', 'Not Treated'","DM, TA, TV","TRIAL DESIGN, SPECIAL PURPOSE","","Record","Fully Executable","Published","","TRUE"
"CORE-000117","","CDISC Library API","CDISC Conformance Rules (SDTMIG/ADaMIG)","https://library.cdisc.org/api/mdr/rules","CDISC","SDTM","SDTMIG 3.2; SDTMIG 3.3","Record Data","CG0081; TIG0346","SDTM and SDTMIG Conformance Rules; TIG Conformance Rules","Model v2.0 §Events; Model v2.0 §Interventions; Model v1.4 §Model v1.4[2.2.1 (Interventions )]|Model v1.4[2.2.2 (Events)]; Model v1.7 §Model v1.7[2.2.1 (Interventions )]|Model v1.7[2.2.2 (Events)]; SDTM v2.1 §3.1.1The Interventions Observation Class|3.1.2 The Events Observation Class","--STAT should equal 'NOT DONE' when --PRESP = 'Y' and --OCCUR = null","Raise an error when --STAT not equal to 'NOT DONE' when --PRESP = 'Y' and --OCCUR is null","","EVENTS, INTERVENTIONS","","Record","Fully Executable","Published","","TRUE"
"CORE-000118","","CDISC Library API","CDISC Conformance Rules (SDTMIG/ADaMIG)","https://library.cdisc.org/api/mdr/rules","CDISC","SDTM","SDTMIG 3.2; SDTMIG 3.3","Record Data","CG0404; TIG0562","SDTM and SDTMIG Conformance Rules; TIG Conformance Rules","SDTM v2.0 §Events; Model v2.0 §Events; Model v2.0 §Interventions; Model v1.4 §Model v1.4[2.2.1 (Interventions )]|Model v1.4[2.2.2 (Events)]; Model v1.7 §Model v1.7[2.2.1 (Interventions )]|Model v1.7[2.2.2 (Events)]; SDTM v2.1 §Section 3.1.1 The Interventions Observation Class | Section 3.1.3 The Findings Observation Class","--STAT is not present in dataset when --PRESP is equal to ""Y"" and --OCCUR is blank","Raise an error when --PRESP is equal to 'Y' and --OCCUR is empty and --STAT is not present in dataset.","","EVENTS, INTERVENTIONS","","Dataset","Fully Executable","Published","","TRUE"
"CORE-000119","","CDISC Library API","CDISC Conformance Rules (SDTMIG/ADaMIG)","https://library.cdisc.org/api/mdr/rules","CDISC","SDTM","SDTMIG 3.3","Record Data","CG0521; TIG0616","SDTM and SDTMIG Conformance Rules; TIG Conformance Rules","IG v3.4 §5.2; IG v3.3 §5.2; TIG 1.0 §2.8.10.4","ARM is populated, when ARMCD is NULL","Raise an error when ARM is not empty, but ARMCD is empty","DM","SPECIAL PURPOSE","","Record","Fully Executable","Published","","TRUE"
"CORE-000120","","CDISC Library API","CDISC Conformance Rules (SDTMIG/ADaMIG)","https://library.cdisc.org/api/mdr/rules","CDISC","SDTM","SDTMIG 3.3","Record Data","CG0522; TIG0617","SDTM and SDTMIG Conformance Rules; TIG Conformance Rules","IG v3.4 §5.2; IG v3.3 §5.2; TIG 1.0 §2.8.10.4","ACTARM is populated, when ACTARMCD is NULL","Raise an error when ACTARM is not empty, but ACTARMCD is empty","DM","SPECIAL PURPOSE","","Record","Fully Executable","Published","","TRUE"
"CORE-000121","","CDISC Library API","CDISC Conformance Rules (SDTMIG/ADaMIG)","https://library.cdisc.org/api/mdr/rules","CDISC","SDTM","SDTMIG 3.3","Record Data","CG0520; TIG0615","SDTM and SDTMIG Conformance Rules; TIG Conformance Rules","IG v3.4 §5.2; IG v3.3 §5.2; TIG 1.0 §2.8.10.4","Value for ARMNRS is populated, when both ARMCD and ACTARMCD values are populated","Verify the value for ARMNRS, when both ARMCD and ACTARMCD values are populated","DM","SPECIAL PURPOSE","","Record","Fully Executable","Published","","TRUE"
"CORE-000122","","CDISC Library API","CDISC Conformance Rules (SDTMIG/ADaMIG)","https://library.cdisc.org/api/mdr/rules","CDISC","SDTM","SDTMIG 3.2; SDTMIG 3.3","Record Data","CG0434; TIG0586","SDTM and SDTMIG Conformance Rules; TIG Conformance Rules","Model v2.0 §Demographics; Model v1.4 §2.2.6; Model v1.7 §Table 2.2.6.1; SDTM v2.1 §3.2.1 Demographics","AGEU is completed, but both AGE and AGETXT are not completed.","Raise an error when AGEU is completed but both AGETXT and AGE are not completed.","DM","SPECIAL PURPOSE","","Record","Fully Executable","Published","","TRUE"
"CORE-000123","","CDISC Library API","CDISC Conformance Rules (SDTMIG/ADaMIG)","https://library.cdisc.org/api/mdr/rules","CDISC","SDTM","SDTMIG 3.2; SDTMIG 3.3","Record Data","CG0388; TIG0550","SDTM and SDTMIG Conformance Rules; TIG Conformance Rules","Model v2.0 §Events; Model v1.7 §2.2.2; Model v1.4 §2.2.2; SDTM v2.1 §3.1.2  The Events Observation Class","AESCAN is completed, but not equal to ""N"" or ""Y""","Raise an error when AESCAN is completed and value is not 'Y' or 'N'","AE","EVENTS","","Record","Fully Executable","Published","","TRUE"
"CORE-000124","","CDISC Library API","CDISC Conformance Rules (SDTMIG/ADaMIG)","https://library.cdisc.org/api/mdr/rules","CDISC","SDTM","SDTMIG 3.2; SDTMIG 3.3","Record Data","CG0389; TIG0551","SDTM and SDTMIG Conformance Rules; TIG Conformance Rules","Model v2.0 §Events; Model v1.7 §2.2.2; Model v1.4 §2.2.2; SDTM v2.1 §3.1.2 The Events Observation Class","AESCONG is completed, but not equal to ""N"" or ""Y""","Raise an error when AESCONG is completed and value is not 'Y' or 'N'","AE","EVENTS","","Record","Fully Executable","Published","","TRUE"
"CORE-000125","","CDISC Library API","CDISC Conformance Rules (SDTMIG/ADaMIG)","https://library.cdisc.org/api/mdr/rules","CDISC","SDTM","SDTMIG 3.2; SDTMIG 3.3","Record Data","CG0390; TIG0552","SDTM and SDTMIG Conformance Rules; TIG Conformance Rules","Model v2.0 §Events; Model v1.7 §2.2.2; Model v1.4 §2.2.2; SDTM v2.1 §3.1.2 The Events Observation Class","AESDISAB is completed, but not equal to ""N"" or ""Y""","Raise an error when AESDISAB is completed and value is not 'Y' or 'N'","AE","EVENTS","","Record","Fully Executable","Published","","TRUE"
"CORE-000126","","CDISC Library API","CDISC Conformance Rules (SDTMIG/ADaMIG)","https://library.cdisc.org/api/mdr/rules","CDISC","SDTM","SDTMIG 3.2; SDTMIG 3.3","Record Data","CG0391; TIG0553","SDTM and SDTMIG Conformance Rules; TIG Conformance Rules","Model v2.0 §Events; Model v1.7 §2.2.2; Model v1.4 §2.2.2; SDTM v2.1 §3.1.2  The Events Observation Class","AESDTH is completed, but not equal to ""N"" or ""Y""","Raise an error when AESDTH is completed and value is not 'Y' or 'N'","AE","EVENTS","","Record","Fully Executable","Published","","TRUE"
"CORE-000127","","CDISC Library API","CDISC Conformance Rules (SDTMIG/ADaMIG)","https://library.cdisc.org/api/mdr/rules","CDISC","SDTM","SDTMIG 3.2; SDTMIG 3.3","Record Data","CG0392; TIG0554","SDTM and SDTMIG Conformance Rules; TIG Conformance Rules","Model v2.0 §Events; Model v1.7 §2.2.2; Model v1.4 §2.2.2; SDTM v2.1 §3.1.2  The Events Observation Class","AESHOSP is completed, but not equal to ""N"" or ""Y""","Raise an error when AESHOSP is completed and value is not 'Y' or 'N'","AE","EVENTS","","Record","Fully Executable","Published","","TRUE"
"CORE-000128","","CDISC Library API","CDISC Conformance Rules (SDTMIG/ADaMIG)","https://library.cdisc.org/api/mdr/rules","CDISC","SDTM","SDTMIG 3.2; SDTMIG 3.3","Record Data","CG0393; TIG0555","SDTM and SDTMIG Conformance Rules; TIG Conformance Rules","Model v2.0 §Events; Model v1.7 §2.2.2; Model v1.4 §2.2.2; SDTM v2.1 §3.1.2 The Events Observation Class","AESLIFE is completed, but not equal to ""N"" or ""Y""","Raise an error when AESLIFE is completed and value is not 'Y' or 'N'","AE","EVENTS","","Record","Fully Executable","Published","","TRUE"
"CORE-000129","","CDISC Library API","CDISC Conformance Rules (SDTMIG/ADaMIG)","https://library.cdisc.org/api/mdr/rules","CDISC","SDTM","SDTMIG 3.2; SDTMIG 3.3","Record Data","CG0394; TIG0556","SDTM and SDTMIG Conformance Rules; TIG Conformance Rules","Model v2.0 §Events; Model v1.7 §2.2.2; Model v1.4 §2.2.2; SDTM v2.1 §3.1.2  The Events Observation Class","AESOD is completed, but not equal to ""N"" or ""Y""","Raise an error when AESOD is completed and value is not 'Y' or 'N'","AE","EVENTS","","Record","Fully Executable","Published","","TRUE"
"CORE-000130","","CDISC Library API","CDISC Conformance Rules (SDTMIG/ADaMIG)","https://library.cdisc.org/api/mdr/rules","CDISC","SDTM","SDTMIG 3.2; SDTMIG 3.3","Record Data","CG0395; TIG0557","SDTM and SDTMIG Conformance Rules; TIG Conformance Rules","Model v2.0 §Events; Model v1.7 §2.2.2; Model v1.4 §2.2.2; SDTM v2.1 §3.1.2  The Events Observation Class","AESMIE is completed, but not equal to ""N"" or ""Y""","Raise an error when AESMIE is completed and value is not 'Y' or 'N'","AE","EVENTS","","Record","Fully Executable","Published","","TRUE"
"CORE-000131","","CDISC Library API","CDISC Conformance Rules (SDTMIG/ADaMIG)","https://library.cdisc.org/api/mdr/rules","CDISC","SDTM","SDTMIG 3.2; SDTMIG 3.3","Record Data","CG0396; TIG0558","SDTM and SDTMIG Conformance Rules; TIG Conformance Rules","Model v2.0 §Events; Model v1.7 §2.2.2.1; Model v1.4 §2.2.2; SDTM v2.1 §3.1.2 The Events Observation Class","AECONTRT is completed, but not equal to ""N"" or ""Y""","Raise an error when AECONTRT is completed and value is not 'Y' or 'N'","AE","EVENTS","","Record","Fully Executable","Published","","TRUE"
"CORE-000132","","CDISC Library API","CDISC Conformance Rules (SDTMIG/ADaMIG)","https://library.cdisc.org/api/mdr/rules","CDISC","SDTM","SDTMIG 3.2; SDTMIG 3.3","Record Data","CG0154; SEND213; FB0914","SDTM and SDTMIG Conformance Rules; SEND Conformance Rules; FDA Business Rules","IG v3.4 §5.3|7.2.1|7.2.2; IG v3.2 §5|7.2; IG v3.3 §5.2|7.2; IG v3.0 §7.2.1.1; IG v3.1 §7.2.1.1; IG v3.1.1 §7.2.1.1; FDA §FDAB009","ETCD and ELEMENT do not have a one-to-one relationship.","ETCD and ELEMENT should have a one-to-one relationship.","TE, TA, SE","TRIAL DESIGN","","Record","Fully Executable","Published","","TRUE"
"CORE-000133","","CDISC Library API","CDISC Conformance Rules (SDTMIG/ADaMIG)","https://library.cdisc.org/api/mdr/rules","CDISC","SDTM","SDTMIG 3.2; SDTMIG 3.3","Record Data","CG0426; TIG0580","SDTM and SDTMIG Conformance Rules; TIG Conformance Rules","Model v2.0 §Findings; Model v1.4 §2.2.3; Model v1.7 §2.2.3; SDTM v2.1 §3.1.3 The Findings Observation Class","Missing value for --STRESC, when --STRESU is provided","When --STRESU is populated, --STRESC must also be populated. Please note that this rule, as executed, cannot check if --STRESC is populated with the standardized unit.","ALL","FINDINGS","","Record","Fully Executable","Published","","TRUE"
"CORE-000134","","CDISC Library API","CDISC Conformance Rules (SDTMIG/ADaMIG)","https://library.cdisc.org/api/mdr/rules","CDISC","SDTM","SDTMIG 3.2; SDTMIG 3.3","Record Data","CG0203; TIG0423","SDTM and SDTMIG Conformance Rules; TIG Conformance Rules","SDTMIG v3.4 §8.4.1; SDTMIG v3.3 §8.4.1; SDTMIG v3.2 §8.4.1; TIG 1.0 §2.8.5.3","RDOMAIN is not 'DM' but IDVAR is empty.","Raise an error when RDOMAIN ^= 'DM' and IDVAR is empty.","SUPP--","RELATIONSHIP","","Record","Fully Executable","Published","","TRUE"
"CORE-000135","","CDISC Library API","CDISC Conformance Rules (SDTMIG/ADaMIG)","https://library.cdisc.org/api/mdr/rules","CDISC","SDTM","SDTMIG 3.2; SDTMIG 3.3","Record Data","CG0204; TIG0424","SDTM and SDTMIG Conformance Rules; TIG Conformance Rules","SDTMIG v3.4 §8.4.1; SDTMIG v3.3 §8.4.1; SDTMIG v3.2 §8.4.1; TIG 1.0 §2.8.5.3","IDVAR is not empty but IDVARVAL is empty.","Raise an error when IDVAR is not empty and IDVARVAL is empty.","SUPP--","RELATIONSHIP","","Record","Fully Executable","Published","","TRUE"
"CORE-000136","","CDISC Library API","CDISC Conformance Rules (SDTMIG/ADaMIG)","https://library.cdisc.org/api/mdr/rules","CDISC","SDTM","SDTMIG 3.2; SDTMIG 3.3","Record Data","CG0201; TIG0422","SDTM and SDTMIG Conformance Rules; TIG Conformance Rules","IG v3.4 §8.3.1 RELREC Dataset Relationship Example; IG v3.3 §8.3.1 RELREC Dataset Relationship Example; IG v3.2 §8.3.1 RELREC Dataset Relationship Example; TIG 1.0 §2.8.5.2","IDVARVAL and USUBJID are not completed, but IDVAR equals Sequence Number.","Raise an error when IDVARVAL and USUBJID are empty and IDVAR = Sequence Number.","RELREC","RELATIONSHIP","","Record","Fully Executable","Published","","TRUE"
"CORE-000137","","CDISC Library API","CDISC Conformance Rules (SDTMIG/ADaMIG)","https://library.cdisc.org/api/mdr/rules","CDISC","SDTM","SDTMIG 3.2; SDTMIG 3.3","Record Data","CG0100; TIG0365","SDTM and SDTMIG Conformance Rules; TIG Conformance Rules","IG v3.4 §6.1.3.2; IG v3.3 §6.1.3.2; IG v3.2 §6.1.; TIG 1.0 §2.8.10.11","ECOCCUR is not 'N', ECSTAT and ECDOSTXT are both empty but ECDOSE is less than or equal to 0.","Raise an error when ECOCCUR is not equal to 'N', ECSTAT and ECDOSTXT are both empty but ECDOSE less than or equal to 0.","EC","INTERVENTIONS","","Record","Fully Executable","Published","","TRUE"
"CORE-000138","","CDISC Library API","CDISC Conformance Rules (SDTMIG/ADaMIG)","https://library.cdisc.org/api/mdr/rules","CDISC","SDTM","SDTMIG 3.2; SDTMIG 3.3","Record Data","CG0221; TIG0435","SDTM and SDTMIG Conformance Rules; TIG Conformance Rules","IG v3.4 §4.4.4; IG v3.2 §4.1.4; IG v3.3 §4.4.4; TIG 1.0 §2.8.7.6","--STDY is not null when either --STDTC or DM.RFSTDTC do not contain complete values in their date portion","If --STDTC or DM.RFSTDTC does not contain a complete values, --STDY must be null.","ALL","ALL","","Record","Fully Executable","Published","","TRUE"
"CORE-000139","","CDISC Library API","CDISC Conformance Rules (SDTMIG/ADaMIG)","https://library.cdisc.org/api/mdr/rules","CDISC","SDTM","SDTMIG 3.2; SDTMIG 3.3","Record Data","CG0223; TIG0437","SDTM and SDTMIG Conformance Rules; TIG Conformance Rules","IG v3.4 §4.4.4; IG v3.3 §4.4.4; IG v3.2 §4.1.4; TIG 1.0 §2.8.7.6","--ENDY is not null when either --ENDTC or DM.RFSTDTC do not contain complete values in their date portion","Trigger error if --ENDTC or DM.RFSTDTC does not contain complete values in their date portion, and --ENDY is not null.","","ALL","","Record","Fully Executable","Published","","TRUE"
"CORE-000140","","CDISC Library API","CDISC Conformance Rules (SDTMIG/ADaMIG)","https://library.cdisc.org/api/mdr/rules","CDISC","SDTM","SDTMIG 3.2; SDTMIG 3.3","Record Data","CG0225; TIG0438","SDTM and SDTMIG Conformance Rules; TIG Conformance Rules","IG v3.4 §4.4.5; IG v3.3 §4.4.5; IG v3.2 §4.1.4.5; TIG 1.0 §2.8.7.5","VISITDY is not null when VISITNUM is not in TV.VISITNUM","Trigger error if VISITDY is populated when VISITNUM is not in TV.","ALL","ALL","","Record","Fully Executable","Published","","TRUE"
"CORE-000141","","CDISC Library API","CDISC Conformance Rules (SDTMIG/ADaMIG)","https://library.cdisc.org/api/mdr/rules","CDISC","SDTM","SDTMIG 3.2; SDTMIG 3.3","Record Data","CG0240; TIG0448; FB0922","SDTM and SDTMIG Conformance Rules; TIG Conformance Rules; FDA Business Rules","IG v3.4 §4.4.10; IG v3.3 §4.4.10; IG v3.2 §4.1.4.10; TIG 1.0 §2.8.7.5; FDA §FDAB009","--TPT and --TPTNUM do not have a one-to-one relationship.","VISITNUM and --TPTREF are not present then --TPT and --TPTNUM should have a one-to-one relationship.","ALL","ALL","","Record","Fully Executable","Published","","TRUE"
"CORE-000142","","CDISC Library API","CDISC Conformance Rules (SDTMIG/ADaMIG)","https://library.cdisc.org/api/mdr/rules","CDISC","SDTM","SDTMIG 3.2; SDTMIG 3.3","Record Data","CG0241; TIG0449","SDTM and SDTMIG Conformance Rules; TIG Conformance Rules","IG v3.4 §4.4.10; IG v3.3 §4.4.10; IG v3.2 §4.1.4.10; TIG 1.0 §2.8.7.5","--ELTM is not the same value across records with the same values of DOMAIN, VISITNUM, --TPTREF, and --TPTNUM.","Raise an error when --TPT ^= null and --TPTNUM ^= null and --ELTM ^= null and --ELTM does not have the same value across records with the same values of DOMAIN, VISITNUM, --TPTREF, and --TPTNUM.","ALL","ALL","","Record","Fully Executable","Published","","TRUE"
"CORE-000143","","CDISC Library API","CDISC Conformance Rules (SDTMIG/ADaMIG)","https://library.cdisc.org/api/mdr/rules","CDISC","SDTM","SDTMIG 3.2; SDTMIG 3.3","Record Data","CG0246; SEND24; TIG0450; TIG0165","SDTM and SDTMIG Conformance Rules; SEND Conformance Rules; TIG Conformance Rules","IG v3.4 §5.3; IG v3.4 §7.2.1; IG v3.4 §7.2.2; IG v3.3 §5.2; IG v3.3 §7.2; IG v3.2 §5; IG v3.2 §7.2; IG v3.0 §4.2.1; IG v3.1 §4.2.1; IG v3.1.1 §4.2.1; TIG 1.0 §2.8.10.24|2.8.10.29|2.8.10.30; TIG v1.0 §2.8.9.26","ETCD value is greater than 8","The length of ETCD should be no greater than 8","TA, TE, SE","TRIAL DESIGN, SPECIAL PURPOSE","","Record","Fully Executable","Published","","TRUE"
"CORE-000144","","CDISC Library API","CDISC Conformance Rules (SDTMIG/ADaMIG)","https://library.cdisc.org/api/mdr/rules","CDISC","SDTM","SDTMIG 3.2; SDTMIG 3.3","Record Data","CG0247; TIG0451","SDTM and SDTMIG Conformance Rules; TIG Conformance Rules","IG v3.4 §7.2.1; IG v3.3 §7.2; IG v3.2 §7.2; TIG 1.0 §2.8.10.27","TAETORD is not unique within ARM","Trigger error when TAETORD is not unique within an ARM","TA","TRIAL DESIGN","","Record","Fully Executable","Published","","TRUE"
"CORE-000145","","CDISC Library API","CDISC Conformance Rules (SDTMIG/ADaMIG)","https://library.cdisc.org/api/mdr/rules","CDISC","SDTM","SDTMIG 3.2; SDTMIG 3.3","Record Data","CG0255","SDTM and SDTMIG Conformance Rules","IG v3.4 §7.4.1; IG v3.3 §7.4.1; IG v3.2 §7.4","IETESTCD is not unique within TIVERS","Trigger error when TIVERS is present and IETESTCD is not unique within TIVERS","TI","TRIAL DESIGN","","Record","Fully Executable","Published","","TRUE"
"CORE-000146","","CDISC Library API","CDISC Conformance Rules (SDTMIG/ADaMIG)","https://library.cdisc.org/api/mdr/rules","CDISC","SDTM","SDTMIG 3.2; SDTMIG 3.3","Record Data","CG0256","SDTM and SDTMIG Conformance Rules","IG v3.4 §7.4.1; IG v3.3 §7.4.1; IG v3.2 §7.4","IETESTCD is not unique","Trigger error when IETESTCD is not unique within dataset","TI","TRIAL DESIGN","","Record","Fully Executable","Published","","TRUE"
"CORE-000147","","CDISC Library API","CDISC Conformance Rules (SDTMIG/ADaMIG)","https://library.cdisc.org/api/mdr/rules","CDISC","SDTM","SDTMIG 3.2; SDTMIG 3.3","Record Data","CG0257; SEND26; TIG0178; TIG0461","SDTM and SDTMIG Conformance Rules; SEND Conformance Rules; TIG Conformance Rules","IG v3.4 §7.4.2; IG v3.2 §7.4; IG v3.3 §7.4.2; IG v3.0 §4.2.1; IG v3.1 §4.2.1; IG v3.1.1 §4.2.1; TIG v1.0 §2.8.9.32; TIG 1.0 §2.8.10.30","Length of TSPARMCD is greater than 8","Trigger error when length of TSPARMCD is greater than 8","TS","TRIAL DESIGN","","Record","Fully Executable","Published","","TRUE"
"CORE-000148","","CDISC Library API","CDISC Conformance Rules (SDTMIG/ADaMIG)","https://library.cdisc.org/api/mdr/rules","CDISC","SDTM","SDTMIG 3.2; SDTMIG 3.3","Record Data","CG0258; TIG0462","SDTM and SDTMIG Conformance Rules; TIG Conformance Rules","IG v3.4 §7.4.2; IG v3.2 §7.4; IG v3.3 §7.4.2; TIG 1.0 §2.8.10.30","Length of TSPARM is greater than 40","Trigger error when length of TSPARM value is greater than 40","TS","TRIAL DESIGN","","Record","Fully Executable","Published","","TRUE"
"CORE-000149","","CDISC Library API","CDISC Conformance Rules (SDTMIG/ADaMIG)","https://library.cdisc.org/api/mdr/rules","CDISC","SDTM","SDTMIG 3.2; SDTMIG 3.3","Record Data","CG0259","SDTM and SDTMIG Conformance Rules","IG v3.4 §7.4.2; IG v3.2 §7.4; IG v3.3 §7.4.2","TSVALNF is null when TSVAL is null.","Trigger error when TSVAL is null and TSVALNF is null","TS","TRIAL DESIGN","","Record","Fully Executable","Published","","TRUE"
"CORE-000150","","CDISC Library API","CDISC Conformance Rules (SDTMIG/ADaMIG)","https://library.cdisc.org/api/mdr/rules","CDISC","SDTM","SDTMIG 3.2; SDTMIG 3.3","Record Data","CG0260","SDTM and SDTMIG Conformance Rules","IG v3.4 §7.4.2; IG v3.2 §7.4; IG v3.3 §7.4.2","TSVALNF is not null when TSVAL is populated","Trigger error when TSVAL is populated and TSVALNF is also populated.","TS","TRIAL DESIGN","","Record","Fully Executable","Published","","TRUE"
"CORE-000151","","CDISC Library API","CDISC Conformance Rules (SDTMIG/ADaMIG)","https://library.cdisc.org/api/mdr/rules","CDISC","SDTM","SDTMIG 3.2; SDTMIG 3.3","Record Data","CG0261; SEND281","SDTM and SDTMIG Conformance Rules; SEND Conformance Rules","IG v3.4 §7.4.2; IG v3.2 §7.4; IG v3.3 §7.4.2; IG v3.0 §7.6.1.1; IG v3.1 §7.6.1.1; IG v3.1.1 §7.6.1.1","TSVAL is null when TSVAL1 is populated.","Trigger error when TSVAL1 is populated and TSVAL is null","TS","TRIAL DESIGN","","Record","Fully Executable","Published","","TRUE"
"CORE-000152","","CDISC Library API","CDISC Conformance Rules (SDTMIG/ADaMIG)","https://library.cdisc.org/api/mdr/rules","CDISC","SDTM","SDTMIG 3.2; SDTMIG 3.3","Record Data","CG0265; TIG0467","SDTM and SDTMIG Conformance Rules; TIG Conformance Rules","IG v3.4 §7.4.2; IG v3.2 §7.4; IG v3.3 §7.4.2; TIG 1.0 §2.8.10.30","There is not a one-to-one relationship between TSVAL and TSVALCD","When TSVAL and TSVALCD are populated, there must be a one-to-one relationship between TSVALCD and TSVAL","TS","TRIAL DESIGN","","Record","Fully Executable","Published","","TRUE"
"CORE-000153","","CDISC Library API","CDISC Conformance Rules (SDTMIG/ADaMIG)","https://library.cdisc.org/api/mdr/rules","CDISC","SDTM","SDTMIG 3.2; SDTMIG 3.3","Record Data","CG0266","SDTM and SDTMIG Conformance Rules","IG v3.4 §7.4.2; IG v3.2 §7.4; IG v3.3 §7.4.2","TSVCDREF is null when TSVCDVER is populated","Trigger error when TSVCDVER is populated and TSVCDREF is null","TS","TRIAL DESIGN","","Record","Fully Executable","Published","","TRUE"
"CORE-000154","","CDISC Library API","CDISC Conformance Rules (SDTMIG/ADaMIG)","https://library.cdisc.org/api/mdr/rules","CDISC","SDTM","SDTMIG 3.2; SDTMIG 3.3","Record Data","CG0268; SEND246; TIG0167; TIG0470","SDTM and SDTMIG Conformance Rules; SEND Conformance Rules; TIG Conformance Rules","IG v3.4 §7.4.2; IG v3.2 §7.4; IG v3.3 §7.4.2; IG v3.0 §7.6.1.1; IG v3.1 §7.6.1.1; IG v3.1.1 §7.6.1.1; TIG v1.0 §2.8.9.32; TIG 1.0 §2.8.10.30","TSSEQ is not unique within TSPARMCD","TSSEQ must be unique within TSPARMCD","TS","TRIAL DESIGN","","Record","Fully Executable","Published","","TRUE"
"CORE-000155","","CDISC Library API","CDISC Conformance Rules (SDTMIG/ADaMIG)","https://library.cdisc.org/api/mdr/rules","CDISC","SDTM","SDTMIG 3.2; SDTMIG 3.3","Record Data","CG0293; TIG0475","SDTM and SDTMIG Conformance Rules; TIG Conformance Rules","IG v3.4 §7.3.1; IG v3.2 §7; IG v3.3 §7.3.1; TIG 1.0 §2.8.10.31","ARMCD is not in TA.ARMCD","Trigger error when ARMCD is populated and ARMCD is not in TA.ARMCD","TV","TRIAL DESIGN","","Record","Fully Executable","Published","","TRUE"
"CORE-000156","","CDISC Library API","CDISC Conformance Rules (SDTMIG/ADaMIG)","https://library.cdisc.org/api/mdr/rules","CDISC","SDTM","SDTMIG 3.2; SDTMIG 3.3","Record Data","CG0294; TIG0476","SDTM and SDTMIG Conformance Rules; TIG Conformance Rules","IG v3.4 §7.3.1; IG v3.2 §7; IG v3.3 §7.3.1; TIG 1.0 §2.8.10.31","ARM is not in TA.ARM","Trigger error when ARM is populated and ARM is not in TA.ARM","TV","TRIAL DESIGN","","Record","Fully Executable","Published","","TRUE"
"CORE-000157","","CDISC Library API","CDISC Conformance Rules (SDTMIG/ADaMIG)","https://library.cdisc.org/api/mdr/rules","CDISC","SDTM","SDTMIG 3.2; SDTMIG 3.3","Record Data","CG0297; TIG0479","SDTM and SDTMIG Conformance Rules; TIG Conformance Rules","IG v3.4 §7.3.1; IG v3.2 §7; IG v3.3 §7.3.1; TIG 1.0 §2.8.10.31","Length of ARMCD is greater than 20","The length of ARMCD is limited to 20 characters.","TV","TRIAL DESIGN","","Record","Fully Executable","Published","","TRUE"
"CORE-000158","","CDISC Library API","CDISC Conformance Rules (SDTMIG/ADaMIG)","https://library.cdisc.org/api/mdr/rules","CDISC","SDTM","SDTMIG 3.2; SDTMIG 3.3","Record Data","CG0163; TIG0396","SDTM and SDTMIG Conformance Rules; TIG Conformance Rules","IG v3.4 §5.1; IG v3.2 §5; IG v3.3 §5.1; TIG 1.0 §2.8.10.2","IDVAR should not be missing when RDOMAIN is not in (empty, DM).","IDVAR must be specified.","CO","SPECIAL PURPOSE","","Record","Fully Executable","Published","","TRUE"
"CORE-000159","","CDISC Library API","CDISC Conformance Rules (SDTMIG/ADaMIG)","https://library.cdisc.org/api/mdr/rules","CDISC","SDTM","SDTMIG 3.2; SDTMIG 3.3","Record Data","CG0341; TIG0506","SDTM and SDTMIG Conformance Rules; TIG Conformance Rules","IG v3.4 §4.2.7.3; IG v3.3 §4.2.7.3; IG v3.2 §4.1.2.7.3; TIG 1.0 §2.8.7.4","--TESTCD is equal to 'OTHER'","Raise an error when --TESTCD = 'OTHER'","ALL","FINDINGS","","Record","Fully Executable","Published","","TRUE"
"CORE-000160","","CDISC Library API","CDISC Conformance Rules (SDTMIG/ADaMIG)","https://library.cdisc.org/api/mdr/rules","CDISC","SDTM","SDTMIG 3.2; SDTMIG 3.3","Record Data","CG0342; TIG0507","SDTM and SDTMIG Conformance Rules; TIG Conformance Rules","IG v3.4 §4.2.7.3; IG v3.3 §4.2.7.3; IG v3.2 §4.1.2.7.3; TIG 1.0 §2.8.7.4","--TRT is equal to 'OTHER'","Raise an error when --TRT = 'OTHER'","ALL","INTERVENTIONS","","Record","Fully Executable","Published","","TRUE"
"CORE-000161","","CDISC Library API","CDISC Conformance Rules (SDTMIG/ADaMIG)","https://library.cdisc.org/api/mdr/rules","CDISC","SDTM","SDTMIG 3.2; SDTMIG 3.3","Record Data","CG0343; TIG0508","SDTM and SDTMIG Conformance Rules; TIG Conformance Rules","IG v3.4 §4.2.7.3; IG v3.3 §4.2.7.3; IG v3.2 §4.1.2.7.3; TIG 1.0 §2.8.7.4","--TERM is equal to 'OTHER'","Raise an error when --TERM = 'OTHER'","ALL","EVENTS","","Record","Fully Executable","Published","","TRUE"
"CORE-000162","","CDISC Library API","CDISC Conformance Rules (SDTMIG/ADaMIG)","https://library.cdisc.org/api/mdr/rules","CDISC","SDTM","SDTMIG 3.2; SDTMIG 3.3","Record Data","CG0344; TIG0509","SDTM and SDTMIG Conformance Rules; TIG Conformance Rules","IG v3.4 §4.2.8.2; IG v3.3 §4.2.8.1; IG v3.2 §4.1.2.8.1; TIG 1.0 §2.8.7.3","--TESTCD is equal to 'MULTIPLE'","Raise an error when --TESTCD = 'MULTIPLE'","ALL","FINDINGS","","Record","Fully Executable","Published","","TRUE"
"CORE-000163","","CDISC Library API","CDISC Conformance Rules (SDTMIG/ADaMIG)","https://library.cdisc.org/api/mdr/rules","CDISC","SDTM","SDTMIG 3.2; SDTMIG 3.3","Record Data","CG0345; TIG0510","SDTM and SDTMIG Conformance Rules; TIG Conformance Rules","IG v3.4 §4.2.8.1; IG v3.3 §4.2.8.1; IG v3.2 §4.1.2.8.1; TIG 1.0 §2.8.7.3","--TRT is equal to 'MULTIPLE'","Raise an error when --TRT = 'MULTIPLE'","ALL","INTERVENTIONS","","Record","Fully Executable","Published","","TRUE"
"CORE-000164","","CDISC Library API","CDISC Conformance Rules (SDTMIG/ADaMIG)","https://library.cdisc.org/api/mdr/rules","CDISC","SDTM","SDTMIG 3.2; SDTMIG 3.3","Record Data","CG0346; TIG0511","SDTM and SDTMIG Conformance Rules; TIG Conformance Rules","IG v3.4 §4.2.8.1; IG v3.3 §4.2.8.1; IG v3.2 §4.1.2.8.1; TIG 1.0 §2.8.7.3","--TERM is equal to 'MULTIPLE'","Raise an error when --TERM = 'MULTIPLE'","ALL","EVENTS","","Record","Fully Executable","Published","","TRUE"
"CORE-000165","","CDISC Library API","CDISC Conformance Rules (SDTMIG/ADaMIG)","https://library.cdisc.org/api/mdr/rules","CDISC","SDTM","SDTMIG 3.2; SDTMIG 3.3","Record Data","CG0090; TIG0355; FB3701","SDTM and SDTMIG Conformance Rules; TIG Conformance Rules; FDA Business Rules","Model v2.0 §Timing; Model v1.7 §2.2.5 Timing Variables for All Classes; Model v1.4 §2.2.5 Timing Variables for All Classes; SDTM v2.1 §Section 3.1.5 Timing Variables for All Classes; FDA §FDAB037","--TPTREF is missing when --RFTDTC is present.","Time point reference (--TPTREF) should be present in the dataset, when reference time point (--RFTDTC) is also present in the dataset.","ALL","ALL","","Dataset","Fully Executable","Published","","TRUE"
"CORE-000167","","CDISC Library API","CDISC Conformance Rules (SDTMIG/ADaMIG)","https://library.cdisc.org/api/mdr/rules","CDISC","SDTM","SDTMIG 3.2; SDTMIG 3.3","Record Data","CG0092; TIG0357","SDTM and SDTMIG Conformance Rules; TIG Conformance Rules","Model v2.0 §Timing; Model v1.4|IG v3.2 §Model v1.4[2.2.5 Timing Variables for All Classes]|IG v3.2[4.1.4.10 Representing Time Points]; Model v1.7|IG v3.3 §Model v1.7[2.2.5 Timing Variables for All Classes]|IG v3.3[4.4.10 Representing Time Points]; SDTM v2.1 §Section 3.1.5 Timing Variables for All Classes","--TPTREF must be present when --ELTM is present in a dataset","Raise an error when--ELTM is present but --TPTREF is not present in dataset.","ALL","ALL","","Dataset","Fully Executable","Published","","TRUE"
