id: HRL-AD-019
version: 1
status: Published
standard: ADaM
category: Consistency
sensitivity: Record
executability: Fully Executable
description: Within a study, all Category y (*CATy) variable values must be the same
  for each unique value of the variable it categorizes within a PARAMCD. [AVAL:AVALCATy],
  [AVALC:AVALCATy], [BASE:BASECATy], [BASEC:BASECATy], [CHG:CHGCATy], [PCHG:PCHGCATy],
  [BCHG:BCHGCATy]. A Category may be the same across values. This rule checks AVALC:AVALCATy
  and BASEC:BASECATy specifically, while AD0221 covers AVAL:AVALCATy, BASE:BASECATy,
  CHG:CHGCATy, PCHG:PCHGCATy, and BCHG:BCHGCATy.
scope:
  classes: []
  domains: []
check:
  all:
    - name: __CATy__
      operator: consistent_within_subject
outcome:
  message: Inconsistent value for *CATy
  severity: Error
provenance:
  source_doc: Herald-original (gap analysis vs P21 Community catalog)
  authority: Herald
  p21_reference: AD0895

tests:
  - name: "CATy values are consistent within subject and PARAMCD"
    type: positive
    skip: true
    datasets:
      ADLB:
        variables: [STUDYID, USUBJID, PARAMCD, AVALCAT1]
        records:
          - ["S1", "S1-001", "ALB", "LOW"]
          - ["S1", "S1-001", "ALB", "LOW"]
    expected_findings: 0

  - name: "CATy values are inconsistent across records within subject and PARAMCD"
    type: negative
    skip: true
    datasets:
      ADLB:
        variables: [STUDYID, USUBJID, PARAMCD, AVALCAT1]
        records:
          - ["S1", "S1-001", "ALB", "LOW"]
          - ["S1", "S1-001", "ALB", "HIGH"]
    expected_findings: 1

