STUDYID,USUBJID,AETERM,AEBODSYS,AEDECOD,AESER,AESTDTC,AEENDTC
CDISCPILOT01,01-701-1015,HEADACHE,NERVOUS SYSTEM DISORDERS,Headache,N,2026-01-15,2026-01-16
CDISCPILOT01,01-701-1015,NAUSEA,GASTROINTESTINAL DISORDERS,Nausea,N,2026-01-20,2026-01-21
CDISCPILOT01,01-701-1023,FATIGUE,GENERAL DISORDERS,Fatigue,N,2026-02-03,2026-02-05
CDISCPILOT01,01-701-1023,INSOMNIA,PSYCHIATRIC DISORDERS,Insomnia,N,2026-02-10,
CDISCPILOT01,01-701-1028,DIZZINESS,NERVOUS SYSTEM DISORDERS,Dizziness,N,2026-02-15,2026-02-16
CDISCPILOT01,01-701-1028,RASH,SKIN AND SUBCUTANEOUS TISSUE DISORDERS,Rash,N,2026-02-20,2026-02-25
CDISCPILOT01,01-701-1033,VOMITING,GASTROINTESTINAL DISORDERS,Vomiting,N,2026-03-01,2026-03-02
CDISCPILOT01,01-701-1033,ABDOMINAL PAIN,GASTROINTESTINAL DISORDERS,Abdominal pain,Y,2026-03-05,2026-03-08
