STUDYID,USUBJID,PARAMCD,PARAM,PARCAT1,AVAL,AVALU,VISIT,VISITNUM
CDISCPILOT01,01-701-1015,SYSBP,Systolic Blood Pressure (mmHg),VITAL SIGNS,120,mmHg,SCREENING,1
CDISCPILOT01,01-701-1015,SYSBP,Systolic Blood Pressure (mmHg),VITAL SIGNS,118,mmHg,BASELINE,2
CDISCPILOT01,01-701-1023,SYSBP,Systolic Blood Pressure (mmHg),CARDIOVASCULAR,128,mmHg,SCREENING,1
CDISCPILOT01,01-701-1023,SYSBP,Systolic Blood Pressure (mmHg),CARDIOVASCULAR,125,mmHg,BASELINE,2
CDISCPILOT01,01-701-1015,DIABP,Diastolic Blood Pressure (mmHg),VITAL SIGNS,80,mmHg,SCREENING,1
CDISCPILOT01,01-701-1015,DIABP,Diastolic Blood Pressure (mmHg),VITAL SIGNS,78,mmHg,BASELINE,2
CDISCPILOT01,01-701-1023,PULSE,Pulse Rate (beats/min),VITAL SIGNS,72,beats/min,SCREENING,1
CDISCPILOT01,01-701-1023,PULSE,Pulse Rate (beats/min),VITAL SIGNS,74,beats/min,BASELINE,2
