STUDYID,USUBJID,LBTESTCD,LBTEST,LBSTRESN,LBSTRESU,VISIT
CDISCPILOT01,01-701-1015,ALT,Alanine Aminotransferase,25,U/L,SCREENING
CDISCPILOT01,01-701-1015,ALT,Alanine Aminotransferase,22,U/L,BASELINE
CDISCPILOT01,01-701-1023,ALT,Alanine Aminotransferase,430,IU/L,SCREENING
CDISCPILOT01,01-701-1028,GLUC,Glucose,5.5,mmol/L,SCREENING
CDISCPILOT01,01-701-1028,GLUC,Glucose,5.2,mmol/L,BASELINE
CDISCPILOT01,01-701-1033,GLUC,Glucose,99,mg/dL,SCREENING
