Authorities:
  - Organization: CDISC
    Standards:
      - Name: ADaMIG
        References:
          - Citations:
              - Cited_Guidance: >-
                  In Time to Event studies, Event or Censoring Description (EVNTDESC)
                  variable must only be present if Censor (CNSR) variable is also present.
                Document: ADaM IG v1.1
                Section: "5.2"
            Origin: ADaM IG Conformance Rules
            Rule_Identifier:
              Id: ADaM-250
              Version: "1"
            Version: "1.0"
        Version: "1.1"
Check:
  all:
    - name: EVNTDESC
      operator: empty
    - name: CNSR
      operator: non_empty
Core:
  Id: ADaM-250
  Status: Published
  Version: "1"
Description: >-
  In Time to Event studies, Event or Censoring Description (EVNTDESC) variable
  must only be present if Censor (CNSR) variable is also present.
Executability: Fully Executable
Outcome:
  Message: "EVNTDESC and/or CNSDTDSC is present, but CNSR is not present"
Rule_Type: Record Data
Scope:
  Classes:
    Include:
      - BASIC DATA STRUCTURE
  Domains:
    Include:
      - ADTTE
Sensitivity: Record
herald:
  ig_versions: ["1.1", "1.2"]
  source: CDISC ADaM Validation Rules XML (September 2015)
  catalogs:
    - ADaMIG 1.1
  fetched: "2026-04-12"

tests:
  - name: EVNTDESC and CNSR both present (valid)
    type: positive
    datasets:
      ADTTE:
        variables: [STUDYID, USUBJID, PARAMCD, EVNTDESC, CNSR]
        records:
          - [CDISCPILOT01, 01-701-1015, TTDE, "Death", 0]
    expected_findings: 0
  - name: EVNTDESC present but CNSR missing (violation)
    type: negative
    datasets:
      ADTTE:
        variables: [STUDYID, USUBJID, PARAMCD, EVNTDESC, CNSR]
        records:
          - [CDISCPILOT01, 01-701-1015, TTDE, "Death", ""]
    expected_findings: 1
